Folder: PyroPython/examples/Birch_TGA_Example/Work/Cone_ehfeyept

Note: Readme.md
# PyroPython -- Parameter estimation for FDS pyrolysis models in python

This is simple python script that attempts to indentify pyrolysis parameters for FDS. The program si divided into three parts:

model.py - this file containse the claa Model. Contains functions for reading datafiles, fitness evaluation and running FDS and postprocessing FDS outputs
config.py - provides configuration management
pyropython.py - main executable 

currently all these files need to be in the same directory. TODO: more sensible packaging

As it is now, the program uses scikit optimize [https://github.com/scikit-optimize/scikit-optimize] to optimize the model. Scikit-optimize uses sequential model-based optimization (also known as Bayesian Optimization).  The optimization uses a response surface fitted to the model evaluations to guide the optimization. TODO: add GAs such as shuffled-complex-evolution. (possibly using SPOTPY [http://fb09-pasig.umwelt.uni-giessen.de/spotpy/])

## Prerequisites

-FDS 
-Python 3
-Python packages: Numpy, Scipy, Matplotlib, pandas, yaml, scikit-optimize

Esiest way to install the prerequiaites

1. Install Anaconda (or miniconda) [https://www.anaconda.com/download/#linux]
2. Type: 
```
 conda install pandas scikit-learn
 conda install -c conda-forge scikit-optimize
```
Matplotlib and numpy should already be included in the download of anaconda, if you downloaded miniconda or otherwise are missing packages:
```
 conda install numpy scipy matploltib 
```

## Usage

Test installation by typing:

```
 python pyropython.py -h

```

This should output the following help text

```
usage: pyropython.py [-h] [-v VERBOSITY] [-n NUM_JOBS] [-m MAX_ITER]
                     [-i NUM_INITIAL] [-p NUM_POINTS]
                     fname

positional arguments:
  fname                 Input file name

optional arguments:
  -h, --help            show this help message and exit
  -v VERBOSITY, --verbosity VERBOSITY
                        increase output verbosity
  -n NUM_JOBS, --num_jobs NUM_JOBS
                        number of concurrent jobs
  -m MAX_ITER, --max_iter MAX_ITER
                        maximum number of iterations
  -i NUM_INITIAL, --num_initial NUM_INITIAL
                        number of points in initial design
  -p NUM_POINTS, --num_points NUM_POINTS
                        number of points per iteration
```

## input files

The input files are standard FDS input files with following additions

1. Theres should be a configuration block somewhere in the .fds file. The configuration is given in YAML format [https://en.wikipedia.org/wiki/YAML]. The configuration is placed between #config_start and #config_end blocks as follows 
```
#config_start

... configuration goes here

#config_end
```
2. The Variables that are to be optimized shall be replaced with $var_name (e.g. dollar sign followed by the variable name). For example:
```
#config_start
...
variables:
          VAR1: [ 0.1, 0.5]
...
#config_end

...

&MATL ID="ACME STUFF"
      

File: birch_tga_1step_2_tga.csv
s,C,g/g,1/s,W/g,W/g
Time,Temp,Mass,MLR,MCC,DSC
 30, 21.0001, 0.999987, 4.80453e-07, 0.0000000E+000, 0.0484218
 180, 26.0001, 0.999883, 9.4801e-07, 0.0000000E+000, 0.0494653
 330, 31.0001, 0.999682, 1.82243e-06, 0.0000000E+000, 0.0514158
 480, 36.0001, 0.999301, 3.40628e-06, 0.0000000E+000, 0.0549465
 630, 41.0001, 0.998602, 6.16185e-06, 0.0000000E+000, 0.0610839
 780, 46.0001, 0.997364, 1.06929e-05, 0.0000000E+000, 0.0711637
 930, 51.0001, 0.995278, 1.75185e-05, 0.0000000E+000, 0.0863168
 1080, 56.0001, 0.992004, 2.63566e-05, 0.0000000E+000, 0.105858
 1230, 61.0001, 0.987387, 3.47561e-05, 0.0000000E+000, 0.124218
 1380, 66.0001, 0.981873, 3.72041e-05, 0.0000000E+000, 0.128986
 1530, 71.0001, 0.976798, 2.85552e-05, 0.0000000E+000, 0.108706
 1680, 76.0001, 0.973677, 1.29016e-05, 0.0000000E+000, 0.0728489
 1830, 81.0001, 0.972641, 2.51929e-06, 0.0000000E+000, 0.0492118
 1980, 86.0001, 0.972505, 1.31928e-07, 0.0000000E+000, 0.0437909
 2130, 91.0001, 0.9725, 8.95175e-10, 0.0000000E+000, 0.0434938
 2280, 96.0001, 0.9725, 2.63279e-13, 0.0000000E+000, 0.0434918
 2430, 101, 0.9725, 6.58164e-19, 0.0000000E+000, 0.0434918
 2580, 106, 0.9725, 1.27292e-27, 0.0000000E+000, 0.0434918
 2730, 111, 0.9725, 0.0000000E+000, 0.0000000E+000, 0.0434918
 2880, 116, 0.9725, 0.0000000E+000, 1.79906e-38, 0.0434918
 3030, 121, 0.9725, 0.0000000E+000, 7.52574e-38, 0.0434918
 3180, 126, 0.9725, 0.0000000E+000, 3.03726e-37, 0.0434918
 3330, 131, 0.9725, 0.0000000E+000, 1.18419e-36, 0.0434918
 3480, 136, 0.9725, 0.0000000E+000, 4.466e-36, 0.0434918
 3630, 141, 0.9725, 0.0000000E+000, 1.63115e-35, 0.0434918
 3780, 146, 0.9725, 0.0000000E+000, 5.7763e-35, 0.0434918
 3930, 151, 0.9725, 0.0000000E+000, 1.98544e-34, 0.0434918
 4080, 156, 0.9725, 1.65772e-38, 6.63087e-34, 0.0434918
 4230, 161, 0.9725, 5.38469e-38, 2.15387e-33, 0.0434918
 4380, 166, 0.9725, 1.70278e-37, 6.81114e-33, 0.0434918
 4530, 171, 0.9725, 5.24688e-37, 2.09875e-32, 0.0434918
 4680, 176, 0.9725, 1.57674e-36, 6.30698e-32, 0.0434918
 4830, 181, 0.9725, 4.62487e-36, 1.84995e-31, 0.0434918
 4980, 186, 0.9725, 1.32513e-35, 5.30053e-31, 0.0434918
 5130, 191, 0.9725, 3.71167e-35, 1.48467e-30, 0.0434918
 5280, 196, 0.9725, 1.01706e-34, 4.06823e-30, 0.0434918
 5430, 201, 0.9725, 2.72828e-34, 1.09131e-29, 0.0434918
 5580, 206, 0.9725, 7.16948e-34, 2.86779e-29, 0.0434918
 5730, 211, 0.9725, 1.8468e-33, 7.3872e-29, 0.0434918
 5880, 216, 0.9725, 4.66607e-33, 1.86643e-28, 0.0434918
 6030, 221, 0.9725, 1.15701e-32, 4.62804e-28, 0.0434918
 6180, 226, 0.9725, 2.81723e-32, 1.12689e-27, 0.0434918
 6330, 231, 0.9725, 6.73969e-32, 2.69588e-27, 0.0434918
 6480, 236, 0.9725, 1.58496e-31, 6.33984e-27, 0.0434918
 6630, 241, 0.9725, 3.66584e-31, 1.46633e-26, 0.0434918
 6780, 246, 0.9725, 8.34283e-31, 3.33713e-26, 0.0434918
 6930, 251, 0.9725, 1.86913e-30, 7.47654e-26, 0.0434918
 7080, 256, 0.9725, 4.12427e-30, 1.64971e-25, 0.0434919
 7230, 261, 0.9725, 8.96641e-30, 3.58656e-25, 0.0434918
 7380, 266, 0.9725, 1.92147e-29, 7.68589e-25, 0.0434918
 7530, 271, 0.9725, 4.06038e-29, 1.62415e-24, 0.0434918
 7680, 276, 0.9725, 8.46414e-29, 3.38566e-24, 0.0434918
 7830, 281, 0.9725, 1.74117e-28, 6.96469e-24, 0.0434918
 7980, 286, 0.9725, 3.53589e-28, 1.41436e-23, 0.0434918
 8130, 291, 0.9725, 7.0909e-28, 2.83636e-23, 0.0434918
 8280, 296, 0.9725, 1.40474e-27, 5.61895e-23, 0.0434918
 8430, 301, 0.9725, 2.7499e-27, 1.09996e-22, 0.0434918
 8580, 306, 0.9725, 5.32111e-27, 2.12845e-22, 0.0434918
 8730, 311, 0.9725, 1.01808e-26, 4.0723e-22, 0.0434918
 8880, 316, 0.9725, 1.92653e-26, 7.70611e-22, 0.0434918
 9030, 321, 0.9725, 3.60668e-26, 1.44267e-21, 0.0434918
 9180, 326, 0.9725, 6.68182e-26, 2.67273e-21, 0.0434918
 9330, 331, 0.9725, 1.22532e-25, 4.90129e-21, 0.0434918
 9480, 336, 0.9725, 2.22475e-25, 8.89901e-21, 0.0434918
 9630, 341, 0.9725, 4.00033e-25, 1.60013e-20, 0.0434918
 9780, 346, 0.9725, 7.12515e-25, 2.85006e-20, 0.0434918
 9930, 351, 0.9725, 1.25741e-24, 5.02962e-20, 0.0434918
 10080, 356, 0.9725, 2.19906e-24, 8.79623e-20, 0.0434919
 10230, 361, 0.9725, 3.81214e-24, 1.52486e-19, 0.0434918
 10380, 366, 0.9725, 6.55184e-24, 2.62074e-19, 0.0434918
 10530, 371, 0.9725, 1.11662e-23, 4.46649e-19, 0.0434918
 10680, 376, 0.9725, 1.88748e-23, 7.54993e-19, 0.0434918
 10830, 381, 0.9725, 3.165e-23, 1.266e-18, 0.0434918
 10980, 386, 0.9725, 5.26574e-23, 2.1063e-18, 0.0434918
 11130, 391, 0.9725, 8.69393e-23, 3.47757e-18, 0.0434918
 11280, 396, 0.9725, 1.42468e-22, 5.69874e-18, 0.0434918
 11430, 401, 0.9725, 2.3176e-22, 9.27042e-18, 0.0434918
 11580, 406, 0.9725, 3.74325e-22, 1.4973e-17, 0.0434918
 11730, 411, 0.9725, 6.00363e-22, 2.40145e-17, 0.0434918
 11880, 416, 0.9725, 9.56319e-22, 3.82527e-17, 0.0434918
 12030, 421, 0.9725, 1.51314e-21, 6.05255e-17, 0.0434918
 12180, 426, 0.9725, 2.3785e-21, 9.51402e-17, 0.0434918
 12330, 431, 0.9725, 3.71484e-21, 1.48594e-16, 0.0434918
 12480, 436, 0.9725, 5.76561e-21, 2.30625e-16, 0.0434918
 12630, 441, 0.9725, 8.89361e-21, 3.55744e-16, 0.0434918
 12780, 446, 0.9725, 1.36362e-20, 5.45447e-16, 0.0434918
 12930, 451, 0.9725, 2.07847e-20, 8.3139e-16, 0.0434918
 13080, 456, 0.9725, 3.14982e-20, 1.25993e-15, 0.0434918
 13230, 461, 0.9725, 4.74644e-20, 1.89858e-15, 0.0434918
 13380, 466, 0.9725, 7.1128e-20, 2.84512e-15, 0.0434918
 13530, 471, 0.9725, 1.06011e-19, 4.24046e-15, 0.0434918
 13680, 476, 0.9725, 1.57163e-19, 6.28653e-15, 0.0434918
 13830, 481, 0.9725, 2.31783e-19, 9.27133e-15, 0.0434918
 13980, 486, 0.9725, 3.40088e-19, 1.36035e-14, 0.0434918
 14130, 491, 0.9725, 4.96501e-19, 1.986e-14, 0.0434918
 14280, 496, 0.9725, 7.21296e-19, 2.88518e-14, 0.0434918
 14430, 501, 0.9725, 1.04282e-18, 4.1713e-14, 0.0434918
 14580, 506, 0.9725, 1.50056e-18, 6.00225e-14, 0.0434918
 14730, 511, 0.9725, 2.14922e-18, 8.5969e-14, 0.0434918
 14880, 516, 0.9725, 3.06431e-18, 1.22572e-13, 0.0434918
 15030, 521, 0.9725, 4.34954e-18, 1.73981e-13, 0.0434918
 15180, 526, 0.9725, 6.14682e-18, 2.45873e-13, 0.0434918
 15330, 531, 0.9725, 8.64947e-18, 3.45979e-13, 0.0434918
 15480, 536, 0.9725, 1.21198e-17, 4.84792e-13, 0.0434918
 15630, 541, 0.9725, 1.69123e-17, 6.76491e-13, 0.0434918
 15780, 546, 0.9725, 2.3504e-17, 9.40161e-13, 0.0434918
 15930, 551, 0.9725, 3.25348e-17, 1.30139e-12, 0.0434918
 16080, 556, 0.9725, 4.48591e-17, 1.79436e-12, 0.0434918
 16230, 561, 0.9725, 6.16142e-17, 2.46457e-12, 0.0434918
 16380, 566, 0.9725, 8.43079e-17, 3.37232e-12, 0.0434918
 16530, 571, 0.9725, 1.14933e-16, 4.5973e-12, 0.0434918
 16680, 576, 0.9725, 1.56111e-16, 6.24443e-12, 0.0434918
 16830, 581, 0.9725, 2.11283e-16, 8.45133e-12, 0.0434918
 16980, 586, 0.9725, 2.8495e-16, 1.1398e-11, 0.0434918
 17130, 591, 0.9725, 3.82972e-16, 1.53189e-11, 0.0434919
 17280, 596, 0.9725, 5.12967e-16, 2.05187e-11, 0.0434918
 17430, 601, 0.9725, 6.84794e-16, 2.73918e-11, 0.0434918
 17580, 606, 0.9725, 9.11178e-16, 3.64471e-11, 0.0434918
 17730, 611, 0.9725, 1.20849e-15, 4.83397e-11, 0.0434918
 17880, 616, 0.9725, 1.59773e-15, 6.39094e-11, 0.0434918
 18030, 621, 0.9725, 2.10576e-15, 8.42304e-11, 0.0434918
 18180, 626, 0.9725, 2.76682e-15, 1.10673e-10, 0.0434918
 18330, 631, 0.9725, 3.62443e-15, 1.44977e-10, 0.0434918
 18480, 636, 0.9725, 4.7338e-15, 1.89352e-10, 0.0434918
 18630, 641, 0.9725, 6.16469e-15, 2.46588e-10, 0.0434918
 18780, 646, 0.9725, 8.00507e-15, 3.20203e-10, 0.0434918
 18930, 651, 0.9725, 1.03655e-14, 4.14621e-10, 0.0434918
 19080, 656, 0.9725, 1.33847e-14, 5.35388e-10, 0.0434918
 19230, 661, 0.9725, 1.72361e-14, 6.89443e-10, 0.0434918
 19380, 666, 0.9725, 2.2136e-14, 8.85439e-10, 0.0434918
 19530, 671, 0.9725, 2.83536e-14, 1.13414e-09, 0.0434917
 19680, 676, 0.9725, 3.6223e-14, 1.44892e-09, 0.0434918
 19830, 681, 0.9725, 4.61579e-14, 1.84632e-09, 0.0434918
 19980, 686, 0.9725, 5.86692e-14, 2.34677e-09, 0.0434918
 20130, 691, 0.9725, 7.43865e-14, 2.97546e-09, 0.0434918
 20280, 696, 0.9725, 9.40836e-14, 3.76335e-09, 0.0434918
 20430, 701, 0.9725, 1.1871e-13, 4.7484e-09, 0.0434918
 20580, 706, 0.9725, 1.49427e-13, 5.97708e-09, 0.0434918
 20730, 711, 0.9725, 1.87653e-13, 7.50611e-09, 0.0434918
 20880, 716, 0.9725, 2.35115e-13, 9.40461e-09, 0.0434918
 21030, 721, 0.9725, 2.93915e-13, 1.17566e-08, 0.0434919
 21180, 726, 0.9725, 3.666e-13, 1.4664e-08, 0.0434918
 21330, 731, 0.9725, 4.56255e-13, 1.82502e-08, 0.0434918
 21480, 736, 0.9725, 5.66606e-13, 2.26643e-08, 0.0434918
 21630, 741, 0.9725, 7.02146e-13, 2.80858e-08, 0.0434918
 21780, 746, 0.9725, 8.68279e-13, 3.47312e-08, 0.0434918
 21930, 751, 0.9725, 1.0715e-12, 4.28598e-08, 0.0434918
 22080, 756, 0.9725, 1.31958e-12, 5.27831e-08, 0.0434919
 22230, 761, 0.9725, 1.62182e-12, 6.4873e-08, 0.0434917
 22380, 766, 0.9725, 1.98935e-12, 7.9574e-08, 0.0434917
 22530, 771, 0.9725, 2.43539e-12, 9.74157e-08, 0.0434919
 22680, 776, 0.9725, 2.9757e-12, 1.19028e-07, 0.0434919
 22830, 781, 0.9725, 3.62898e-12, 1.45159e-07, 0.0434917
 22980, 786, 0.9725, 4.41739e-12, 1.76696e-07, 0.0434917
 23130, 791, 0.9725, 5.36716e-12, 2.14686e-07, 0.0434918
 23280, 796, 0.9725, 6.50927e-12, 2.60371e-07, 0.0434917
 23400, 800, 0.9725, 7.58578e-12, 3.03431e-07, 0.0434919