Folder: PyroPython/examples/Birch_TGA_Example/Work/Cone_arvlop4v

Note: Readme.md
# PyroPython -- Parameter estimation for FDS pyrolysis models in python

This is simple python script that attempts to indentify pyrolysis parameters for FDS. The program si divided into three parts:

model.py - this file containse the claa Model. Contains functions for reading datafiles, fitness evaluation and running FDS and postprocessing FDS outputs
config.py - provides configuration management
pyropython.py - main executable 

currently all these files need to be in the same directory. TODO: more sensible packaging

As it is now, the program uses scikit optimize [https://github.com/scikit-optimize/scikit-optimize] to optimize the model. Scikit-optimize uses sequential model-based optimization (also known as Bayesian Optimization).  The optimization uses a response surface fitted to the model evaluations to guide the optimization. TODO: add GAs such as shuffled-complex-evolution. (possibly using SPOTPY [http://fb09-pasig.umwelt.uni-giessen.de/spotpy/])

## Prerequisites

-FDS 
-Python 3
-Python packages: Numpy, Scipy, Matplotlib, pandas, yaml, scikit-optimize

Esiest way to install the prerequiaites

1. Install Anaconda (or miniconda) [https://www.anaconda.com/download/#linux]
2. Type: 
```
 conda install pandas scikit-learn
 conda install -c conda-forge scikit-optimize
```
Matplotlib and numpy should already be included in the download of anaconda, if you downloaded miniconda or otherwise are missing packages:
```
 conda install numpy scipy matploltib 
```

## Usage

Test installation by typing:

```
 python pyropython.py -h

```

This should output the following help text

```
usage: pyropython.py [-h] [-v VERBOSITY] [-n NUM_JOBS] [-m MAX_ITER]
                     [-i NUM_INITIAL] [-p NUM_POINTS]
                     fname

positional arguments:
  fname                 Input file name

optional arguments:
  -h, --help            show this help message and exit
  -v VERBOSITY, --verbosity VERBOSITY
                        increase output verbosity
  -n NUM_JOBS, --num_jobs NUM_JOBS
                        number of concurrent jobs
  -m MAX_ITER, --max_iter MAX_ITER
                        maximum number of iterations
  -i NUM_INITIAL, --num_initial NUM_INITIAL
                        number of points in initial design
  -p NUM_POINTS, --num_points NUM_POINTS
                        number of points per iteration
```

## input files

The input files are standard FDS input files with following additions

1. Theres should be a configuration block somewhere in the .fds file. The configuration is given in YAML format [https://en.wikipedia.org/wiki/YAML]. The configuration is placed between #config_start and #config_end blocks as follows 
```
#config_start

... configuration goes here

#config_end
```
2. The Variables that are to be optimized shall be replaced with $var_name (e.g. dollar sign followed by the variable name). For example:
```
#config_start
...
variables:
          VAR1: [ 0.1, 0.5]
...
#config_end

...

&MATL ID="ACME STUFF"
      

File: birch_tga_1step_2_tga.csv
s,C,g/g,1/s,W/g,W/g
Time,Temp,Mass,MLR,MCC,DSC
 30, 21.0001, 0.999987, 4.80453e-07, 0.0000000E+000, 0.0484218
 180, 26.0001, 0.999883, 9.4801e-07, 0.0000000E+000, 0.0494653
 330, 31.0001, 0.999682, 1.82243e-06, 0.0000000E+000, 0.0514158
 480, 36.0001, 0.999301, 3.40628e-06, 0.0000000E+000, 0.0549465
 630, 41.0001, 0.998602, 6.16185e-06, 0.0000000E+000, 0.0610839
 780, 46.0001, 0.997364, 1.06929e-05, 0.0000000E+000, 0.0711637
 930, 51.0001, 0.995278, 1.75185e-05, 0.0000000E+000, 0.0863168
 1080, 56.0001, 0.992004, 2.63566e-05, 0.0000000E+000, 0.105858
 1230, 61.0001, 0.987387, 3.47561e-05, 0.0000000E+000, 0.124218
 1380, 66.0001, 0.981873, 3.72041e-05, 0.0000000E+000, 0.128986
 1530, 71.0001, 0.976798, 2.85552e-05, 0.0000000E+000, 0.108706
 1680, 76.0001, 0.973677, 1.29016e-05, 0.0000000E+000, 0.0728489
 1830, 81.0001, 0.972641, 2.51929e-06, 0.0000000E+000, 0.0492118
 1980, 86.0001, 0.972505, 1.31928e-07, 0.0000000E+000, 0.0437909
 2130, 91.0001, 0.9725, 8.95175e-10, 0.0000000E+000, 0.0434938
 2280, 96.0001, 0.9725, 2.63279e-13, 0.0000000E+000, 0.0434918
 2430, 101, 0.9725, 6.58164e-19, 0.0000000E+000, 0.0434918
 2580, 106, 0.9725, 1.27292e-27, 0.0000000E+000, 0.0434918
 2730, 111, 0.9725, 0.0000000E+000, 0.0000000E+000, 0.0434918
 2880, 116, 0.9725, 0.0000000E+000, 0.0000000E+000, 0.0434918
 3030, 121, 0.9725, 0.0000000E+000, 0.0000000E+000, 0.0434918
 3180, 126, 0.9725, 0.0000000E+000, 5.13521e-38, 0.0434918
 3330, 131, 0.9725, 0.0000000E+000, 2.35092e-37, 0.0434918
 3480, 136, 0.9725, 0.0000000E+000, 1.03698e-36, 0.0434918
 3630, 141, 0.9725, 0.0000000E+000, 4.41306e-36, 0.0434918
 3780, 146, 0.9725, 0.0000000E+000, 1.81428e-35, 0.0434918
 3930, 151, 0.9725, 0.0000000E+000, 7.21427e-35, 0.0434918
 4080, 156, 0.9725, 0.0000000E+000, 2.77787e-34, 0.0434918
 4230, 161, 0.9725, 2.5923e-38, 1.03692e-33, 0.0434918
 4380, 166, 0.9725, 9.39056e-38, 3.75623e-33, 0.0434918
 4530, 171, 0.9725, 3.30455e-37, 1.32182e-32, 0.0434918
 4680, 176, 0.9725, 1.13075e-36, 4.52301e-32, 0.0434918
 4830, 181, 0.9725, 3.76582e-36, 1.50633e-31, 0.0434918
 4980, 186, 0.9725, 1.22172e-35, 4.88687e-31, 0.0434918
 5130, 191, 0.9725, 3.8643e-35, 1.54572e-30, 0.0434918
 5280, 196, 0.9725, 1.19265e-34, 4.77058e-30, 0.0434918
 5430, 201, 0.9725, 3.59442e-34, 1.43777e-29, 0.0434918
 5580, 206, 0.9725, 1.05864e-33, 4.23456e-29, 0.0434918
 5730, 211, 0.9725, 3.04914e-33, 1.21965e-28, 0.0434918
 5880, 216, 0.9725, 8.59436e-33, 3.43774e-28, 0.0434918
 6030, 221, 0.9725, 2.37215e-32, 9.48861e-28, 0.0434918
 6180, 226, 0.9725, 6.41562e-32, 2.56625e-27, 0.0434918
 6330, 231, 0.9725, 1.70123e-31, 6.80493e-27, 0.0434918
 6480, 236, 0.9725, 4.42558e-31, 1.77023e-26, 0.0434918
 6630, 241, 0.9725, 1.13006e-30, 4.52024e-26, 0.0434918
 6780, 246, 0.9725, 2.83394e-30, 1.13357e-25, 0.0434918
 6930, 251, 0.9725, 6.9833e-30, 2.79332e-25, 0.0434918
 7080, 256, 0.9725, 1.69173e-29, 6.7669e-25, 0.0434919
 7230, 261, 0.9725, 4.03093e-29, 1.61237e-24, 0.0434918
 7380, 266, 0.9725, 9.45118e-29, 3.78047e-24, 0.0434918
 7530, 271, 0.9725, 2.18155e-28, 8.72622e-24, 0.0434918
 7680, 276, 0.9725, 4.95942e-28, 1.98377e-23, 0.0434918
 7830, 281, 0.9725, 1.11086e-27, 4.44344e-23, 0.0434918
 7980, 286, 0.9725, 2.45259e-27, 9.81034e-23, 0.0434918
 8130, 291, 0.9725, 5.3394e-27, 2.13576e-22, 0.0434918
 8280, 296, 0.9725, 1.14663e-26, 4.58652e-22, 0.0434918
 8430, 301, 0.9725, 2.42982e-26, 9.71927e-22, 0.0434918
 8580, 306, 0.9725, 5.08268e-26, 2.03307e-21, 0.0434918
 8730, 311, 0.9725, 1.04984e-25, 4.19937e-21, 0.0434918
 8880, 316, 0.9725, 2.14195e-25, 8.56779e-21, 0.0434918
 9030, 321, 0.9725, 4.31798e-25, 1.72719e-20, 0.0434918
 9180, 326, 0.9725, 8.60343e-25, 3.44137e-20, 0.0434918
 9330, 331, 0.9725, 1.69475e-24, 6.77902e-20, 0.0434918
 9480, 336, 0.9725, 3.30148e-24, 1.32059e-19, 0.0434918
 9630, 341, 0.9725, 6.36201e-24, 2.5448e-19, 0.0434918
 9780, 346, 0.9725, 1.21305e-23, 4.8522e-19, 0.0434918
 9930, 351, 0.9725, 2.28914e-23, 9.15657e-19, 0.0434918
 10080, 356, 0.9725, 4.27645e-23, 1.71058e-18, 0.0434919
 10230, 361, 0.9725, 7.91068e-23, 3.16427e-18, 0.0434918
 10380, 366, 0.9725, 1.44932e-22, 5.79729e-18, 0.0434918
 10530, 371, 0.9725, 2.63047e-22, 1.05219e-17, 0.0434918
 10680, 376, 0.9725, 4.73059e-22, 1.89223e-17, 0.0434918
 10830, 381, 0.9725, 8.4314e-22, 3.37256e-17, 0.0434918
 10980, 386, 0.9725, 1.48962e-21, 5.9585e-17, 0.0434918
 11130, 391, 0.9725, 2.60935e-21, 1.04374e-16, 0.0434918
 11280, 396, 0.9725, 4.53262e-21, 1.81305e-16, 0.0434918
 11430, 401, 0.9725, 7.80924e-21, 3.1237e-16, 0.0434918
 11580, 406, 0.9725, 1.33472e-20, 5.33888e-16, 0.0434918
 11730, 411, 0.9725, 2.26344e-20, 9.05375e-16, 0.0434918
 11880, 416, 0.9725, 3.80907e-20, 1.52363e-15, 0.0434918
 12030, 421, 0.9725, 6.36227e-20, 2.54491e-15, 0.0434918
 12180, 426, 0.9725, 1.05492e-19, 4.21968e-15, 0.0434918
 12330, 431, 0.9725, 1.73663e-19, 6.94652e-15, 0.0434918
 12480, 436, 0.9725, 2.83885e-19, 1.13554e-14, 0.0434918
 12630, 441, 0.9725, 4.60882e-19, 1.84353e-14, 0.0434918
 12780, 446, 0.9725, 7.43207e-19, 2.97283e-14, 0.0434918
 12930, 451, 0.9725, 1.1906e-18, 4.76238e-14, 0.0434918
 13080, 456, 0.9725, 1.89501e-18, 7.58005e-14, 0.0434918
 13230, 461, 0.9725, 2.99717e-18, 1.19887e-13, 0.0434918
 13380, 466, 0.9725, 4.71103e-18, 1.88441e-13, 0.0434918
 13530, 471, 0.9725, 7.36006e-18, 2.94402e-13, 0.0434918
 13680, 476, 0.9725, 1.14304e-17, 4.57215e-13, 0.0434918
 13830, 481, 0.9725, 1.76484e-17, 7.05935e-13, 0.0434918
 13980, 486, 0.9725, 2.70934e-17, 1.08374e-12, 0.0434918
 14130, 491, 0.9725, 4.13606e-17, 1.65442e-12, 0.0434918
 14280, 496, 0.9725, 6.27944e-17, 2.51178e-12, 0.0434918
 14430, 501, 0.9725, 9.48228e-17, 3.79291e-12, 0.0434918
 14580, 506, 0.9725, 1.42432e-16, 5.69728e-12, 0.0434918
 14730, 511, 0.9725, 2.12838e-16, 8.51352e-12, 0.0434918
 14880, 516, 0.9725, 3.16432e-16, 1.26573e-11, 0.0434918
 15030, 521, 0.9725, 4.68104e-16, 1.87241e-11, 0.0434918
 15180, 526, 0.9725, 6.8909e-16, 2.75636e-11, 0.0434918
 15330, 531, 0.9725, 1.00954e-15, 4.03814e-11, 0.0434918
 15480, 536, 0.9725, 1.47203e-15, 5.88814e-11, 0.0434918
 15630, 541, 0.9725, 2.1365e-15, 8.54599e-11, 0.0434917
 15780, 546, 0.9725, 3.08682e-15, 1.23473e-10, 0.0434918
 15930, 551, 0.9725, 4.43999e-15, 1.77599e-10, 0.0434918
 16080, 556, 0.9725, 6.3584e-15, 2.54336e-10, 0.0434918
 16230, 561, 0.9725, 9.06659e-15, 3.62664e-10, 0.0434918
 16380, 566, 0.9725, 1.28737e-14, 5.14949e-10, 0.0434918
 16530, 571, 0.9725, 1.82037e-14, 7.28149e-10, 0.0434918
 16680, 576, 0.9725, 2.56357e-14, 1.02543e-09, 0.0434918
 16830, 581, 0.9725, 3.59574e-14, 1.4383e-09, 0.0434918
 16980, 586, 0.9725, 5.02368e-14, 2.00947e-09, 0.0434918
 17130, 591, 0.9725, 6.99157e-14, 2.79663e-09, 0.0434918
 17280, 596, 0.9725, 9.6934e-14, 3.87736e-09, 0.0434918
 17430, 601, 0.9725, 1.33892e-13, 5.35567e-09, 0.0434918
 17580, 606, 0.9725, 1.84262e-13, 7.37048e-09, 0.0434918
 17730, 611, 0.9725, 2.52668e-13, 1.01067e-08, 0.0434918
 17880, 616, 0.9725, 3.4524e-13, 1.38096e-08, 0.0434918
 18030, 621, 0.9725, 4.70085e-13, 1.88034e-08, 0.0434918
 18180, 626, 0.9725, 6.37883e-13, 2.55153e-08, 0.0434918
 18330, 631, 0.9725, 8.62659e-13, 3.45064e-08, 0.0434918
 18480, 636, 0.9725, 1.16278e-12, 4.6511e-08, 0.0434917
 18630, 641, 0.9725, 1.56219e-12, 6.24876e-08, 0.0434918
 18780, 646, 0.9725, 2.09207e-12, 8.36829e-08, 0.0434918
 18930, 651, 0.9725, 2.79284e-12, 1.11714e-07, 0.0434918
 19080, 656, 0.9725, 3.71678e-12, 1.48671e-07, 0.0434918
 19230, 661, 0.9725, 4.93126e-12, 1.9725e-07, 0.0434918
 19380, 666, 0.9725, 6.52291e-12, 2.60917e-07, 0.0434918
 19530, 671, 0.9725, 8.60278e-12, 3.44111e-07, 0.0434918
 19680, 676, 0.9725, 1.13128e-11, 4.52511e-07, 0.0434919
 19830, 681, 0.9725, 1.48338e-11, 5.93353e-07, 0.0434917
 19980, 686, 0.9725, 1.93959e-11, 7.75837e-07, 0.0434918
 20130, 691, 0.9725, 2.52907e-11, 1.01163e-06, 0.0434918
 20280, 696, 0.9725, 3.28867e-11, 1.31547e-06, 0.0434918
 20430, 701, 0.9725, 4.26491e-11, 1.70596e-06, 0.0434919
 20580, 706, 0.9725, 5.51627e-11, 2.20651e-06, 0.0434918
 20730, 711, 0.9725, 7.11618e-11, 2.84647e-06, 0.0434918
 20880, 716, 0.9725, 9.15651e-11, 3.6626e-06, 0.0434919
 21030, 721, 0.9725, 1.1752e-10, 4.7008e-06, 0.0434918
 21180, 726, 0.9725, 1.50456e-10, 6.01822e-06, 0.0434918
 21330, 731, 0.9725, 1.92148e-10, 7.68593e-06, 0.0434919
 21480, 736, 0.9725, 2.448e-10, 9.79202e-06, 0.0434919
 21630, 741, 0.9725, 3.11136e-10, 1.24455e-05, 0.0434919
 21780, 746, 0.9725, 3.94519e-10, 1.57807e-05, 0.0434919
 21930, 751, 0.9725, 4.99088e-10, 1.99635e-05, 0.043492
 22080, 756, 0.9725, 6.29934e-10, 2.51974e-05, 0.043492
 22230, 761, 0.972499, 7.93296e-10, 3.17318e-05, 0.043492
 22380, 766, 0.972499, 9.96807e-10, 3.98723e-05, 0.043492
 22530, 771, 0.972499, 1.24979e-09, 4.99917e-05, 0.0434921
 22680, 776, 0.972499, 1.56361e-09, 6.25443e-05, 0.0434922
 22830, 781, 0.972499, 1.95207e-09, 7.80827e-05, 0.0434922
 22980, 786, 0.972498, 2.43194e-09, 9.72775e-05, 0.0434923
 23130, 791, 0.972498, 3.02352e-09, 0.000120941, 0.0434925
 23280, 796, 0.972497, 3.75135e-09, 0.000150054, 0.0434927
 23400, 800, 0.972497, 4.45144e-09, 0.000178057, 0.0434929

File: birch_tga_1step_5_tga.csv
s,C,g/g,1/s,W/g,W/g
Time,Temp,Mass,MLR,MCC,DSC
 12, 21.0003, 0.999993, 6.11641e-07, 0.0000000E+000, 0.121505
 72, 26.0003, 0.99994, 1.2096e-06, 0.0000000E+000, 0.12284
 132, 31.0003, 0.999838, 2.33562e-06, 0.0000000E+000, 0.125352
 192, 36.0003, 0.999641, 4.40258e-06, 0.0000000E+000, 0.12996
 252, 41.0003, 0.999277, 8.09149e-06, 0.0000000E+000, 0.13818
 312, 46.0003, 0.998617, 1.4457e-05, 0.0000000E+000, 0.152354
 372, 51.0003, 0.997459, 2.49637e-05, 0.0000000E+000, 0.175724
 432, 56.0003, 0.995506, 4.12227e-05, 0.0000000E+000, 0.211832
 492, 61.0003, 0.992381, 6.39249e-05, 0.0000000E+000, 0.262109
 552, 66.0002, 0.987756, 9.03173e-05, 0.0000000E+000, 0.320212
 612, 71.0002, 0.981658, 0.000110681, 0.0000000E+000, 0.364157
 672, 76.0002, 0.974924, 0.000108763, 0.0000000E+000, 0.35746
 732, 81.0003, 0.96925, 7.57684e-05, 0.0000000E+000, 0.280815
 792, 86.0003, 0.966081, 3.09276e-05, 0.0000000E+000, 0.178244
 852, 91.0004, 0.965122, 5.53148e-06, 0.0000000E+000, 0.120447
 912, 96.0004, 0.965004, 2.79825e-07, 0.0000000E+000, 0.108525
 972, 101, 0.965, 2.08746e-09, 0.0000000E+000, 0.107895
 1032, 106, 0.965, 8.80702e-13, 0.0000000E+000, 0.10789
 1092, 111, 0.965, 5.20756e-18, 0.0000000E+000, 0.10789
 1152, 116, 0.965, 5.77881e-26, 0.0000000E+000, 0.10789
 1212, 121, 0.965, 6.81979e-38, 0.0000000E+000, 0.10789
 1272, 126, 0.965, 0.0000000E+000, 5.24955e-38, 0.10789
 1332, 131, 0.965, 0.0000000E+000, 2.40327e-37, 0.10789
 1392, 136, 0.965, 0.0000000E+000, 1.06008e-36, 0.10789
 1452, 141, 0.965, 0.0000000E+000, 4.51136e-36, 0.10789
 1512, 146, 0.965, 0.0000000E+000, 1.85469e-35, 0.10789
 1572, 151, 0.965, 0.0000000E+000, 7.37499e-35, 0.10789
 1632, 156, 0.965, 0.0000000E+000, 2.83976e-34, 0.10789
 1692, 161, 0.965, 2.65006e-38, 1.06002e-33, 0.10789
 1752, 166, 0.965, 9.59981e-38, 3.83992e-33, 0.10789
 1812, 171, 0.965, 3.37819e-37, 1.35128e-32, 0.10789
 1872, 176, 0.965, 1.15595e-36, 4.62381e-32, 0.10789
 1932, 181, 0.965, 3.84975e-36, 1.5399e-31, 0.10789
 1992, 186, 0.965, 1.24895e-35, 4.9958e-31, 0.10789
 2052, 191, 0.965, 3.95044e-35, 1.58018e-30, 0.10789
 2112, 196, 0.965, 1.21923e-34, 4.87693e-30, 0.10789
 2172, 201, 0.965, 3.67456e-34, 1.46982e-29, 0.10789
 2232, 206, 0.965, 1.08224e-33, 4.32896e-29, 0.10789
 2292, 211, 0.965, 3.11712e-33, 1.24685e-28, 0.10789
 2352, 216, 0.965, 8.78599e-33, 3.5144e-28, 0.10789
 2412, 221, 0.965, 2.42505e-32, 9.7002e-28, 0.10789
 2472, 226, 0.965, 6.55868e-32, 2.62347e-27, 0.10789
 2532, 231, 0.965, 1.73917e-31, 6.95668e-27, 0.10789
 2592, 236, 0.965, 4.52428e-31, 1.80971e-26, 0.10789
 2652, 241, 0.965, 1.15526e-30, 4.62105e-26, 0.10789
 2712, 246, 0.965, 2.89714e-30, 1.15886e-25, 0.10789
 2772, 251, 0.965, 7.13907e-30, 2.85563e-25, 0.10789
 2832, 256, 0.965, 1.72946e-29, 6.91785e-25, 0.10789
 2892, 261, 0.965, 4.12084e-29, 1.64834e-24, 0.10789
 2952, 266, 0.965, 9.66202e-29, 3.86481e-24, 0.10789
 3012, 271, 0.965, 2.23022e-28, 8.92089e-24, 0.10789
 3072, 276, 0.965, 5.07006e-28, 2.02803e-23, 0.10789
 3132, 281, 0.965, 1.13564e-27, 4.54258e-23, 0.10789
 3192, 286, 0.965, 2.50731e-27, 1.00292e-22, 0.10789
 3252, 291, 0.965, 5.45853e-27, 2.18341e-22, 0.10789
 3312, 296, 0.965, 1.17222e-26, 4.68886e-22, 0.10789
 3372, 301, 0.965, 2.48404e-26, 9.93615e-22, 0.10789
 3432, 306, 0.965, 5.19609e-26, 2.07844e-21, 0.10789
 3492, 311, 0.965, 1.07327e-25, 4.29308e-21, 0.10789
 3552, 316, 0.965, 2.18975e-25, 8.75899e-21, 0.10789
 3612, 321, 0.965, 4.41435e-25, 1.76574e-20, 0.10789
 3672, 326, 0.965, 8.79544e-25, 3.51817e-20, 0.10789
 3732, 331, 0.965, 1.73258e-24, 6.93031e-20, 0.10789
 3792, 336, 0.965, 3.37516e-24, 1.35006e-19, 0.10789
 3852, 341, 0.965, 6.504e-24, 2.6016e-19, 0.10789
 3912, 346, 0.965, 1.24013e-23, 4.9605e-19, 0.10789
 3972, 351, 0.965, 2.34024e-23, 9.36095e-19, 0.10789
 4032, 356, 0.965, 4.3719e-23, 1.74876e-18, 0.10789
 4092, 361, 0.965, 8.08726e-23, 3.2349e-18, 0.10789
 4152, 366, 0.965, 1.48167e-22, 5.9267e-18, 0.10789
 4212, 371, 0.965, 2.68919e-22, 1.07568e-17, 0.10789
 4272, 376, 0.965, 4.83619e-22, 1.93448e-17, 0.10789
 4332, 381, 0.965, 8.61962e-22, 3.44785e-17, 0.10789
 4392, 386, 0.965, 1.52288e-21, 6.09152e-17, 0.10789
 4452, 391, 0.965, 2.6676e-21, 1.06704e-16, 0.10789
 4512, 396, 0.965, 4.63381e-21, 1.85352e-16, 0.10789
 4572, 401, 0.965, 7.98359e-21, 3.19344e-16, 0.10789
 4632, 406, 0.965, 1.36452e-20, 5.45807e-16, 0.10789
 4692, 411, 0.965, 2.31397e-20, 9.25589e-16, 0.10789
 4752, 416, 0.965, 3.89411e-20, 1.55764e-15, 0.10789
 4812, 421, 0.965, 6.50432e-20, 2.60173e-15, 0.10789
 4872, 426, 0.965, 1.07847e-19, 4.31389e-15, 0.10789
 4932, 431, 0.965, 1.77541e-19, 7.10162e-15, 0.10789
 4992, 436, 0.965, 2.90224e-19, 1.1609e-14, 0.10789
 5052, 441, 0.965, 4.71173e-19, 1.88469e-14, 0.10789
 5112, 446, 0.965, 7.59802e-19, 3.03921e-14, 0.10789
 5172, 451, 0.965, 1.21718e-18, 4.86873e-14, 0.10789
 5232, 456, 0.965, 1.93733e-18, 7.74932e-14, 0.10789
 5292, 461, 0.965, 3.06409e-18, 1.22564e-13, 0.10789
 5352, 466, 0.965, 4.81623e-18, 1.92649e-13, 0.10789
 5412, 471, 0.965, 7.52442e-18, 3.00977e-13, 0.10789
 5472, 476, 0.965, 1.16856e-17, 4.67425e-13, 0.10789
 5532, 481, 0.965, 1.80425e-17, 7.217e-13, 0.10789
 5592, 486, 0.965, 2.76985e-17, 1.10794e-12, 0.10789
 5652, 491, 0.965, 4.22843e-17, 1.69137e-12, 0.10789
 5712, 496, 0.965, 6.41968e-17, 2.56787e-12, 0.10789
 5772, 501, 0.965, 9.69405e-17, 3.87762e-12, 0.10789
 5832, 506, 0.965, 1.45613e-16, 5.82452e-12, 0.10789
 5892, 511, 0.965, 2.17591e-16, 8.70366e-12, 0.10789
 5952, 516, 0.965, 3.23499e-16, 1.294e-11, 0.10789
 6012, 521, 0.965, 4.78558e-16, 1.91423e-11, 0.10789
 6072, 526, 0.965, 7.04481e-16, 2.81792e-11, 0.10789
 6132, 531, 0.965, 1.03208e-15, 4.12834e-11, 0.10789
 6192, 536, 0.965, 1.50491e-15, 6.01965e-11, 0.10789
 6252, 541, 0.965, 2.18422e-15, 8.73687e-11, 0.10789
 6312, 546, 0.965, 3.15577e-15, 1.26231e-10, 0.10789
 6372, 551, 0.965, 4.53916e-15, 1.81566e-10, 0.10789
 6432, 556, 0.965, 6.50042e-15, 2.60017e-10, 0.10789
 6492, 561, 0.965, 9.26911e-15, 3.70764e-10, 0.10789
 6552, 566, 0.965, 1.31613e-14, 5.26451e-10, 0.10789
 6612, 571, 0.965, 1.86104e-14, 7.44414e-10, 0.10789
 6672, 576, 0.965, 2.62083e-14, 1.04833e-09, 0.10789
 6732, 581, 0.965, 3.67606e-14, 1.47043e-09, 0.10789
 6792, 586, 0.965, 5.1359e-14, 2.05436e-09, 0.10789
 6852, 591, 0.965, 7.14775e-14, 2.8591e-09, 0.10789
 6912, 596, 0.965, 9.90993e-14, 3.96397e-09, 0.10789
 6972, 601, 0.965, 1.36883e-13, 5.47531e-09, 0.10789
 7032, 606, 0.965, 1.88378e-13, 7.53513e-09, 0.10789
 7092, 611, 0.965, 2.58312e-13, 1.03325e-08, 0.10789
 7152, 616, 0.965, 3.52952e-13, 1.41181e-08, 0.10789
 7212, 621, 0.965, 4.80587e-13, 1.92235e-08, 0.10789
 7272, 626, 0.965, 6.52133e-13, 2.60853e-08, 0.10789
 7332, 631, 0.965, 8.81931e-13, 3.52772e-08, 0.10789
 7392, 636, 0.965, 1.18875e-12, 4.75501e-08, 0.10789
 7452, 641, 0.965, 1.59709e-12, 6.38836e-08, 0.10789
 7512, 646, 0.965, 2.13881e-12, 8.55524e-08, 0.10789
 7572, 651, 0.965, 2.85524e-12, 1.1421e-07, 0.10789
 7632, 656, 0.965, 3.79981e-12, 1.51993e-07, 0.10789
 7692, 661, 0.965, 5.04143e-12, 2.01657e-07, 0.10789
 7752, 666, 0.965, 6.66864e-12, 2.66746e-07, 0.10789
 7812, 671, 0.965, 8.79497e-12, 3.51799e-07, 0.10789
 7872, 676, 0.965, 1.15655e-11, 4.62621e-07, 0.10789
 7932, 681, 0.965, 1.51652e-11, 6.0661e-07, 0.10789
 7992, 686, 0.965, 1.98293e-11, 7.93171e-07, 0.10789
 8052, 691, 0.965, 2.58557e-11, 1.03423e-06, 0.10789
 8112, 696, 0.965, 3.36214e-11, 1.34486e-06, 0.10789
 8172, 701, 0.965, 4.36019e-11, 1.74408e-06, 0.10789
 8232, 706, 0.965, 5.63952e-11, 2.25581e-06, 0.10789
 8292, 711, 0.965, 7.27517e-11, 2.91007e-06, 0.10789
 8352, 716, 0.965, 9.36109e-11, 3.74443e-06, 0.10789
 8412, 721, 0.965, 1.20146e-10, 4.80582e-06, 0.10789
 8472, 726, 0.965, 1.53817e-10, 6.15269e-06, 0.10789
 8532, 731, 0.965, 1.96441e-10, 7.85766e-06, 0.10789
 8592, 736, 0.965, 2.5027e-10, 1.00108e-05, 0.10789
 8652, 741, 0.965, 3.18088e-10, 1.27235e-05, 0.10789
 8712, 746, 0.965, 4.03334e-10, 1.61333e-05, 0.107891
 8772, 751, 0.965, 5.1024e-10, 2.04096e-05, 0.107891
 8832, 756, 0.965, 6.44009e-10, 2.57604e-05, 0.107891
 8892, 761, 0.965, 8.11021e-10, 3.24408e-05, 0.107891
 8952, 766, 0.965, 1.01908e-09, 4.07632e-05, 0.107891
 9012, 771, 0.965, 1.27772e-09, 5.11087e-05, 0.107891
 9072, 776, 0.965, 1.59855e-09, 6.39419e-05, 0.107891
 9132, 781, 0.965, 1.99569e-09, 7.98275e-05, 0.107891
 9192, 786, 0.964999, 2.48628e-09, 9.94512e-05, 0.107891
 9252, 791, 0.964999, 3.09108e-09, 0.000123643, 0.107891
 9312, 796, 0.964999, 3.83518e-09, 0.000153407, 0.107891
 9360, 800, 0.964999, 4.55091e-09, 0.000182036, 0.107891