Folder: PyroPython/examples/Birch_TGA_Example/Work/Cone_ixa4_k2v (part 2)

File: birch_tga_1step_20_tga.csv
s,C,g/g,1/s,W/g,W/g
Time,Temp,Mass,MLR,MCC,DSC
 3, 21.0014, 0.999999, 2.18432e-07, 0.0000000E+000, 0.459601
 18, 26.0014, 0.999995, 4.32468e-07, 0.0000000E+000, 0.460078
 33, 31.0014, 0.999985, 8.36909e-07, 0.0000000E+000, 0.460981
 48, 36.0014, 0.999968, 1.58425e-06, 0.0000000E+000, 0.462648
 63, 41.0014, 0.999935, 2.9349e-06, 0.0000000E+000, 0.465658
 78, 46.0014, 0.999875, 5.32078e-06, 0.0000000E+000, 0.470974
 93, 51.0014, 0.999767, 9.43249e-06, 0.0000000E+000, 0.480128
 108, 56.0014, 0.999578, 1.63183e-05, 0.0000000E+000, 0.495447
 123, 61.0014, 0.999256, 2.74414e-05, 3.40334e-38, 0.520169
 138, 66.0014, 0.998725, 4.45431e-05, 1.97201e-37, 0.558128
 153, 71.0013, 0.997882, 6.89739e-05, 1.08578e-36, 0.612238
 168, 76.0013, 0.996621, 9.99575e-05, 5.6932e-36, 0.680587
 183, 81.0013, 0.994879, 0.000131523, 2.84872e-35, 0.749574
 198, 86.0012, 0.992741, 0.000149884, 1.36294e-34, 0.788117
 213, 91.0013, 0.990538, 0.00013763, 6.24651e-34, 0.757287
 228, 96.0013, 0.988788, 9.13137e-05, 2.74722e-33, 0.65002
 243, 101.001, 0.98784, 3.72118e-05, 1.16134e-32, 0.526279
 258, 106.001, 0.987544, 7.33278e-06, 4.72615e-32, 0.458275
 273, 111.001, 0.987502, 4.9318e-07, 1.85432e-31, 0.442749
 288, 116.001, 0.9875, 6.85133e-09, 7.02434e-31, 0.441646
 303, 121.001, 0.9875, 9.59621e-12, 2.57247e-30, 0.441631
 318, 126.001, 0.9875, 4.90975e-16, 9.11953e-30, 0.441631
 333, 131.001, 0.9875, 2.20505e-22, 3.13325e-29, 0.441631
 348, 136.001, 0.9875, 1.21611e-31, 1.04452e-28, 0.441631
 363, 141.001, 0.9875, 8.45572e-33, 3.38229e-28, 0.441631
 378, 146.001, 0.9875, 2.66239e-32, 1.06495e-27, 0.441631
 393, 151.001, 0.9875, 8.15919e-32, 3.26368e-27, 0.441631
 408, 156.001, 0.9875, 2.43607e-31, 9.74428e-27, 0.441631
 423, 161.001, 0.9875, 7.09236e-31, 2.83694e-26, 0.441631
 438, 166.001, 0.9875, 2.01522e-30, 8.06089e-26, 0.441631
 453, 171.001, 0.9875, 5.59299e-30, 2.2372e-25, 0.441631
 468, 176.001, 0.9875, 1.51738e-29, 6.06953e-25, 0.441631
 483, 181.001, 0.9875, 4.02719e-29, 1.61088e-24, 0.441631
 498, 186.001, 0.9875, 1.04635e-28, 4.18539e-24, 0.441631
 513, 191.001, 0.9875, 2.66328e-28, 1.06531e-23, 0.441631
 528, 196.001, 0.9875, 6.6452e-28, 2.65808e-23, 0.441631
 543, 201.001, 0.9875, 1.62639e-27, 6.50557e-23, 0.441631
 558, 206.001, 0.9875, 3.90687e-27, 1.56275e-22, 0.441631
 573, 211.001, 0.9875, 9.21663e-27, 3.68665e-22, 0.441631
 588, 216.001, 0.9875, 2.13646e-26, 8.54584e-22, 0.441631
 603, 221.001, 0.9875, 4.86887e-26, 1.94755e-21, 0.441631
 618, 226.001, 0.9875, 1.09143e-25, 4.36572e-21, 0.441631
 633, 231.001, 0.9875, 2.40773e-25, 9.63094e-21, 0.441631
 648, 236.001, 0.9875, 5.22965e-25, 2.09186e-20, 0.441631
 663, 241.001, 0.9875, 1.11889e-24, 4.47554e-20, 0.441631
 678, 246.001, 0.9875, 2.35904e-24, 9.43616e-20, 0.441631
 693, 251.001, 0.9875, 4.90348e-24, 1.96139e-19, 0.441631
 708, 256.001, 0.9875, 1.00524e-23, 4.02095e-19, 0.441631
 723, 261.001, 0.9875, 2.03328e-23, 8.1331e-19, 0.441631
 738, 266.001, 0.9875, 4.05928e-23, 1.62371e-18, 0.441631
 753, 271.001, 0.9875, 8.00175e-23, 3.2007e-18, 0.441631
 768, 276.001, 0.9875, 1.55795e-22, 6.23179e-18, 0.441631
 783, 281.001, 0.9875, 2.99709e-22, 1.19883e-17, 0.441631
 798, 286.001, 0.9875, 5.69854e-22, 2.27942e-17, 0.441631
 813, 291.001, 0.9875, 1.07123e-21, 4.28491e-17, 0.441631
 828, 296.001, 0.9875, 1.99151e-21, 7.96605e-17, 0.441631
 843, 301.001, 0.9875, 3.66264e-21, 1.46506e-16, 0.441631
 858, 306.001, 0.9875, 6.66556e-21, 2.66622e-16, 0.441631
 873, 311.001, 0.9875, 1.20068e-20, 4.80272e-16, 0.441631
 888, 316.001, 0.9875, 2.14131e-20, 8.56524e-16, 0.441631
 903, 321.001, 0.9875, 3.78184e-20, 1.51273e-15, 0.441631
 918, 326.001, 0.9875, 6.61612e-20, 2.64645e-15, 0.441631
 933, 331.001, 0.9875, 1.14679e-19, 4.58715e-15, 0.441631
 948, 336.001, 0.9875, 1.96989e-19, 7.87956e-15, 0.441631
 963, 341.001, 0.9875, 3.35409e-19, 1.34164e-14, 0.441631
 978, 346.001, 0.9875, 5.66205e-19, 2.26482e-14, 0.441631
 993, 351.001, 0.9875, 9.4783e-19, 3.79132e-14, 0.441631
 1008, 356.001, 0.9875, 1.57373e-18, 6.29492e-14, 0.441631
 1023, 361.001, 0.9875, 2.59213e-18, 1.03685e-13, 0.441631
 1038, 366.001, 0.9875, 4.23637e-18, 1.69455e-13, 0.441631
 1053, 371.001, 0.9875, 6.87098e-18, 2.74839e-13, 0.441631
 1068, 376.001, 0.9875, 1.10613e-17, 4.42454e-13, 0.441631
 1083, 381.001, 0.9875, 1.76781e-17, 7.07124e-13, 0.441631
 1098, 386.001, 0.9875, 2.80527e-17, 1.12211e-12, 0.441631
 1113, 391.001, 0.9875, 4.42073e-17, 1.76829e-12, 0.441631
 1128, 396.001, 0.9875, 6.91928e-17, 2.76771e-12, 0.441631
 1143, 401.001, 0.9875, 1.07583e-16, 4.30331e-12, 0.441631
 1158, 406.001, 0.9875, 1.66189e-16, 6.64755e-12, 0.441631
 1173, 411.001, 0.9875, 2.55094e-16, 1.02038e-11, 0.441631
 1188, 416.001, 0.9875, 3.89133e-16, 1.55653e-11, 0.441631
 1203, 421.001, 0.9875, 5.90002e-16, 2.36001e-11, 0.441631
 1218, 426.001, 0.9875, 8.89251e-16, 3.557e-11, 0.441631
 1233, 431.001, 0.9875, 1.33249e-15, 5.32997e-11, 0.441631
 1248, 436.001, 0.9875, 1.98531e-15, 7.94124e-11, 0.441631
 1263, 441.001, 0.9875, 2.94149e-15, 1.1766e-10, 0.441631
 1278, 446.001, 0.9875, 4.33443e-15, 1.73377e-10, 0.441631
 1293, 451.001, 0.9875, 6.35289e-15, 2.54116e-10, 0.441631
 1308, 456.001, 0.9875, 9.26261e-15, 3.70505e-10, 0.441631
 1323, 461.001, 0.9875, 1.34359e-14, 5.37434e-10, 0.441631
 1338, 466.001, 0.9875, 1.93915e-14, 7.75661e-10, 0.441631
 1353, 471.001, 0.9875, 2.78495e-14, 1.11398e-09, 0.441631
 1368, 476.001, 0.9875, 3.98037e-14, 1.59215e-09, 0.441631
 1383, 481.001, 0.9875, 5.66204e-14, 2.26482e-09, 0.441631
 1398, 486.001, 0.9875, 8.01691e-14, 3.20677e-09, 0.441631
 1413, 491.001, 0.9875, 1.12996e-13, 4.51985e-09, 0.441631
 1428, 496.001, 0.9875, 1.58556e-13, 6.34226e-09, 0.441631
 1443, 501.001, 0.9875, 2.21515e-13, 8.86059e-09, 0.441631
 1458, 506.001, 0.9875, 3.08147e-13, 1.23259e-08, 0.441631
 1473, 511.001, 0.9875, 4.26859e-13, 1.70744e-08, 0.441631
 1488, 516.001, 0.9875, 5.88869e-13, 2.35547e-08, 0.441631
 1503, 521.001, 0.9875, 8.09082e-13, 3.23633e-08, 0.441631
 1518, 526.001, 0.9875, 1.10724e-12, 4.42894e-08, 0.441631
 1533, 531.001, 0.9875, 1.50936e-12, 6.03745e-08, 0.441631
 1548, 536.001, 0.9875, 2.04967e-12, 8.19867e-08, 0.441631
 1563, 541.001, 0.9875, 2.77295e-12, 1.10918e-07, 0.441631
 1578, 546.001, 0.9875, 3.73764e-12, 1.49506e-07, 0.441631
 1593, 551.001, 0.9875, 5.01972e-12, 2.00789e-07, 0.441631
 1608, 556.001, 0.9875, 6.71765e-12, 2.68706e-07, 0.441631
 1623, 561.001, 0.9875, 8.95856e-12, 3.58342e-07, 0.441631
 1638, 566.001, 0.9875, 1.19061e-11, 4.76243e-07, 0.441631
 1653, 571.001, 0.9875, 1.57702e-11, 6.30807e-07, 0.441631
 1668, 576.001, 0.9875, 2.08193e-11, 8.32773e-07, 0.441631
 1683, 581.001, 0.9875, 2.73958e-11, 1.09583e-06, 0.441631
 1698, 586.001, 0.9875, 3.59347e-11, 1.43739e-06, 0.441631
 1713, 591.001, 0.9875, 4.69873e-11, 1.87949e-06, 0.441631
 1728, 596.001, 0.9875, 6.12502e-11, 2.45001e-06, 0.441631
 1743, 601.001, 0.9875, 7.96007e-11, 3.18403e-06, 0.441631
 1758, 606.001, 0.9875, 1.03141e-10, 4.12564e-06, 0.441631
 1773, 611.001, 0.9875, 1.33252e-10, 5.33009e-06, 0.441631
 1788, 616.001, 0.9875, 1.71659e-10, 6.86634e-06, 0.441631
 1803, 621.001, 0.9875, 2.20509e-10, 8.82037e-06, 0.441631
 1818, 626.001, 0.9875, 2.82474e-10, 1.1299e-05, 0.441631
 1833, 631.001, 0.9875, 3.60861e-10, 1.44344e-05, 0.441631
 1848, 636.001, 0.9875, 4.59761e-10, 1.83904e-05, 0.441631
 1863, 641.001, 0.9875, 5.84216e-10, 2.33687e-05, 0.441631
 1878, 646.001, 0.9875, 7.40429e-10, 2.96171e-05, 0.441631
 1893, 651.001, 0.9875, 9.36007e-10, 3.74403e-05, 0.441631
 1908, 656.001, 0.9875, 1.18026e-09, 4.72106e-05, 0.441631
 1923, 661.001, 0.9875, 1.48457e-09, 5.93829e-05, 0.441631
 1938, 666.001, 0.9875, 1.86279e-09, 7.45115e-05, 0.441631
 1953, 671.001, 0.9875, 2.33174e-09, 9.32698e-05, 0.441631
 1968, 676.001, 0.9875, 2.91186e-09, 0.000116475, 0.441632
 1983, 681.001, 0.9875, 3.62786e-09, 0.000145114, 0.441632
 1998, 686.001, 0.9875, 4.50955e-09, 0.000180382, 0.441632
 2013, 691.001, 0.9875, 5.5929e-09, 0.000223716, 0.441632
 2028, 696.001, 0.9875, 6.92111e-09, 0.000276844, 0.441632
 2043, 701.001, 0.987499, 8.54603e-09, 0.000341841, 0.441633
 2058, 706.001, 0.987499, 1.05297e-08, 0.000421189, 0.441633
 2073, 711.001, 0.987499, 1.29464e-08, 0.000517857, 0.441634
 2088, 716.001, 0.987499, 1.58845e-08, 0.000635382, 0.441635
 2103, 721.001, 0.987499, 1.94494e-08, 0.000777976, 0.441635
 2118, 726.001, 0.987498, 2.37661e-08, 0.000950643, 0.441636
 2133, 731.001, 0.987498, 2.89829e-08, 0.00115932, 0.441638
 2148, 736.001, 0.987497, 3.52754e-08, 0.00141102, 0.441639
 2163, 741.001, 0.987497, 4.2851e-08, 0.00171404, 0.441641
 2178, 746.001, 0.987496, 5.19542e-08, 0.00207817, 0.441643
 2193, 751.001, 0.987495, 6.28729e-08, 0.00251492, 0.441645
 2208, 756.001, 0.987494, 7.59454e-08, 0.00303782, 0.441648
 2223, 761.001, 0.987493, 9.15684e-08, 0.00366274, 0.441652
 2238, 766.001, 0.987491, 1.10207e-07, 0.00440827, 0.441656
 2253, 771.001, 0.98749, 1.32404e-07, 0.00529614, 0.441661
 2268, 776.001, 0.987487, 1.58793e-07, 0.00635172, 0.441667
 2283, 781.001, 0.987485, 1.90114e-07, 0.00760457, 0.441673
 2298, 786.001, 0.987482, 2.27226e-07, 0.00908906, 0.441682
 2313, 791.001, 0.987478, 2.71128e-07, 0.0108451, 0.441692
 2328, 796.001, 0.987474, 3.22978e-07, 0.0129191, 0.441703
 2340, 800.001, 0.987469, 3.71075e-07, 0.014843, 0.441714