Folder: PyroPython/examples/Birch_TGA_Example/Work/Cone_zba3hngy (part 2)

File: birch_tga_1step_10_tga.csv
s,C,g/g,1/s,W/g,W/g
Time,Temp,Mass,MLR,MCC,DSC
 6, 21.0007, 0.999998, 4.369e-07, 0.0000000E+000, 0.236481
 36, 26.0007, 0.999979, 8.64679e-07, 0.0000000E+000, 0.237436
 66, 31.0007, 0.999942, 1.67208e-06, 0.0000000E+000, 0.239238
 96, 36.0007, 0.999872, 3.16074e-06, 0.0000000E+000, 0.242557
 126, 41.0007, 0.99974, 5.83993e-06, 0.0000000E+000, 0.248528
 156, 46.0007, 0.999501, 1.0536e-05, 0.0000000E+000, 0.258988
 186, 51.0007, 0.999076, 1.85149e-05, 3.11771e-38, 0.276746
 216, 56.0007, 0.99834, 3.15376e-05, 1.88454e-37, 0.305701
 246, 61.0006, 0.997112, 5.1621e-05, 1.07942e-36, 0.350289
 276, 66.0006, 0.995158, 8.00034e-05, 5.8725e-36, 0.413148
 306, 71.0006, 0.992247, 0.000114589, 3.04145e-35, 0.489374
 336, 76.0005, 0.988312, 0.000145893, 1.50273e-34, 0.557452
 366, 81.0005, 0.983712, 0.000155296, 7.09733e-34, 0.575505
 396, 86.0005, 0.979394, 0.000125686, 3.21028e-33, 0.505472
 426, 91.0006, 0.976476, 6.69e-05, 1.39314e-32, 0.370411
 456, 96.0007, 0.975266, 1.88216e-05, 5.81003e-32, 0.260783
 486, 101.001, 0.975018, 2.02144e-06, 2.33228e-31, 0.222604
 516, 106.001, 0.975, 5.13397e-08, 9.02527e-31, 0.218135
 546, 111.001, 0.975, 1.53537e-10, 3.37164e-30, 0.218019
 576, 116.001, 0.975, 1.97906e-14, 1.21763e-29, 0.218018
 606, 121.001, 0.975, 2.6181e-20, 4.25636e-29, 0.218018
 636, 126.001, 0.975, 4.66345e-29, 1.44193e-28, 0.218018
 666, 131.001, 0.975, 1.1849e-32, 4.73958e-28, 0.218018
 696, 136.001, 0.975, 3.78307e-32, 1.51323e-27, 0.218018
 726, 141.001, 0.975, 1.17445e-31, 4.6978e-27, 0.218018
 756, 146.001, 0.975, 3.54885e-31, 1.41954e-26, 0.218018
 786, 151.001, 0.975, 1.04476e-30, 4.17905e-26, 0.218018
 816, 156.001, 0.975, 2.99931e-30, 1.19972e-25, 0.218018
 846, 161.001, 0.975, 8.40378e-30, 3.36151e-25, 0.218018
 876, 166.001, 0.975, 2.30006e-29, 9.20025e-25, 0.218018
 906, 171.001, 0.975, 6.15402e-29, 2.46161e-24, 0.218018
 936, 176.001, 0.975, 1.61088e-28, 6.44351e-24, 0.218018
 966, 181.001, 0.975, 4.12823e-28, 1.65129e-23, 0.218018
 996, 186.001, 0.975, 1.03649e-27, 4.14595e-23, 0.218018
 1026, 191.001, 0.975, 2.55124e-27, 1.02049e-22, 0.218018
 1056, 196.001, 0.975, 6.16026e-27, 2.4641e-22, 0.218018
 1086, 201.001, 0.975, 1.46007e-26, 5.84027e-22, 0.218018
 1116, 206.001, 0.975, 3.3988e-26, 1.35952e-21, 0.218018
 1146, 211.001, 0.975, 7.77496e-26, 3.10998e-21, 0.218018
 1176, 216.001, 0.975, 1.74874e-25, 6.99494e-21, 0.218018
 1206, 221.001, 0.975, 3.86925e-25, 1.5477e-20, 0.218018
 1236, 226.001, 0.975, 8.42595e-25, 3.37038e-20, 0.218018
 1266, 231.001, 0.975, 1.80679e-24, 7.22715e-20, 0.218018
 1296, 236.001, 0.975, 3.8167e-24, 1.52668e-19, 0.218018
 1326, 241.001, 0.975, 7.94608e-24, 3.17843e-19, 0.218018
 1356, 246.001, 0.975, 1.63111e-23, 6.52444e-19, 0.218018
 1386, 251.001, 0.975, 3.30259e-23, 1.32104e-18, 0.218018
 1416, 256.001, 0.975, 6.59836e-23, 2.63934e-18, 0.218018
 1446, 261.001, 0.975, 1.30134e-22, 5.20536e-18, 0.218018
 1476, 266.001, 0.975, 2.53439e-22, 1.01376e-17, 0.218018
 1506, 271.001, 0.975, 4.87571e-22, 1.95028e-17, 0.218018
 1536, 276.001, 0.975, 9.26886e-22, 3.70754e-17, 0.218018
 1566, 281.001, 0.975, 1.74173e-21, 6.96692e-17, 0.218018
 1596, 286.001, 0.975, 3.2362e-21, 1.29448e-16, 0.218018
 1626, 291.001, 0.975, 5.94732e-21, 2.37893e-16, 0.218018
 1656, 296.001, 0.975, 1.08134e-20, 4.32537e-16, 0.218018
 1686, 301.001, 0.975, 1.94573e-20, 7.78294e-16, 0.218018
 1716, 306.001, 0.975, 3.46576e-20, 1.3863e-15, 0.218018
 1746, 311.001, 0.975, 6.11253e-20, 2.44501e-15, 0.218018
 1776, 316.001, 0.975, 1.06773e-19, 4.27092e-15, 0.218018
 1806, 321.001, 0.975, 1.84767e-19, 7.39069e-15, 0.218018
 1836, 326.001, 0.975, 3.1682e-19, 1.26728e-14, 0.218018
 1866, 331.001, 0.975, 5.38424e-19, 2.1537e-14, 0.218018
 1896, 336.001, 0.975, 9.07101e-19, 3.6284e-14, 0.218018
 1926, 341.001, 0.975, 1.5153e-18, 6.06119e-14, 0.218018
 1956, 346.001, 0.975, 2.51039e-18, 1.00416e-13, 0.218018
 1986, 351.001, 0.975, 4.12545e-18, 1.65018e-13, 0.218018
 2016, 356.001, 0.975, 6.72625e-18, 2.6905e-13, 0.218018
 2046, 361.001, 0.975, 1.08825e-17, 4.35298e-13, 0.218018
 2076, 366.001, 0.975, 1.74748e-17, 6.98991e-13, 0.218018
 2106, 371.001, 0.975, 2.7855e-17, 1.1142e-12, 0.218018
 2136, 376.001, 0.975, 4.40834e-17, 1.76334e-12, 0.218018
 2166, 381.001, 0.975, 6.92786e-17, 2.77114e-12, 0.218018
 2196, 386.001, 0.975, 1.0813e-16, 4.32519e-12, 0.218018
 2226, 391.001, 0.975, 1.67641e-16, 6.70563e-12, 0.218018
 2256, 396.001, 0.975, 2.58207e-16, 1.03283e-11, 0.218018
 2286, 401.001, 0.975, 3.95161e-16, 1.58065e-11, 0.218018
 2316, 406.001, 0.975, 6.00979e-16, 2.40392e-11, 0.218018
 2346, 411.001, 0.975, 9.08412e-16, 3.63365e-11, 0.218018
 2376, 416.001, 0.975, 1.36491e-15, 5.45962e-11, 0.218018
 2406, 421.001, 0.975, 2.0388e-15, 8.15522e-11, 0.218018
 2436, 426.001, 0.975, 3.028e-15, 1.2112e-10, 0.218018
 2466, 431.001, 0.975, 4.47194e-15, 1.78878e-10, 0.218018
 2496, 436.001, 0.975, 6.56823e-15, 2.62729e-10, 0.218018
 2526, 441.001, 0.975, 9.5954e-15, 3.83816e-10, 0.218018
 2556, 446.001, 0.975, 1.3944e-14, 5.57762e-10, 0.218018
 2586, 451.001, 0.975, 2.01592e-14, 8.06367e-10, 0.218018
 2616, 456.001, 0.975, 2.89976e-14, 1.1599e-09, 0.218018
 2646, 461.001, 0.975, 4.15049e-14, 1.6602e-09, 0.218018
 2676, 466.001, 0.975, 5.91195e-14, 2.36478e-09, 0.218018
 2706, 471.001, 0.975, 8.38102e-14, 3.35241e-09, 0.218018
 2736, 476.001, 0.975, 1.18261e-13, 4.73043e-09, 0.218018
 2766, 481.001, 0.975, 1.66112e-13, 6.64448e-09, 0.218018
 2796, 486.001, 0.975, 2.32283e-13, 9.29132e-09, 0.218018
 2826, 491.001, 0.975, 3.23391e-13, 1.29357e-08, 0.218018
 2856, 496.001, 0.975, 4.48302e-13, 1.79321e-08, 0.218018
 2886, 501.001, 0.975, 6.18844e-13, 2.47538e-08, 0.218018
 2916, 506.001, 0.975, 8.50735e-13, 3.40294e-08, 0.218018
 2946, 511.001, 0.975, 1.16478e-12, 4.65913e-08, 0.218018
 2976, 516.001, 0.975, 1.58843e-12, 6.3537e-08, 0.218018
 3006, 521.001, 0.975, 2.15771e-12, 8.63082e-08, 0.218018
 3036, 526.001, 0.975, 2.9198e-12, 1.16792e-07, 0.218018
 3066, 531.001, 0.975, 3.93623e-12, 1.57449e-07, 0.218018
 3096, 536.001, 0.975, 5.28693e-12, 2.11477e-07, 0.218018
 3126, 541.001, 0.975, 7.07545e-12, 2.83018e-07, 0.218018
 3156, 546.001, 0.975, 9.43538e-12, 3.77415e-07, 0.218018
 3186, 551.001, 0.975, 1.25386e-11, 5.01542e-07, 0.218018
 3216, 556.001, 0.975, 1.66053e-11, 6.64212e-07, 0.218018
 3246, 561.001, 0.975, 2.19171e-11, 8.76685e-07, 0.218018
 3276, 566.001, 0.975, 2.88326e-11, 1.1533e-06, 0.218018
 3306, 571.001, 0.975, 3.7807e-11, 1.51228e-06, 0.218018
 3336, 576.001, 0.975, 4.9417e-11, 1.97668e-06, 0.218018
 3366, 581.001, 0.975, 6.43899e-11, 2.5756e-06, 0.218018
 3396, 586.001, 0.975, 8.36415e-11, 3.34566e-06, 0.218018
 3426, 591.001, 0.975, 1.08321e-10, 4.33282e-06, 0.218018
 3456, 596.001, 0.975, 1.39865e-10, 5.59459e-06, 0.218018
 3486, 601.001, 0.975, 1.80068e-10, 7.2027e-06, 0.218018
 3516, 606.001, 0.975, 2.31161e-10, 9.24645e-06, 0.218018
 3546, 611.001, 0.975, 2.95915e-10, 1.18366e-05, 0.218019
 3576, 616.001, 0.975, 3.77758e-10, 1.51103e-05, 0.218018
 3606, 621.001, 0.975, 4.80921e-10, 1.92368e-05, 0.218019
 3636, 626.001, 0.975, 6.10615e-10, 2.44246e-05, 0.218019
 3666, 631.001, 0.975, 7.73241e-10, 3.09296e-05, 0.218019
 3696, 636.001, 0.975, 9.76638e-10, 3.90655e-05, 0.218019
 3726, 641.001, 0.975, 1.23039e-09, 4.92157e-05, 0.218019
 3756, 646.001, 0.975, 1.54619e-09, 6.18475e-05, 0.218019
 3786, 651.001, 0.975, 1.93824e-09, 7.75294e-05, 0.218019
 3816, 656.001, 0.975, 2.42379e-09, 9.69516e-05, 0.218019
 3846, 661.001, 0.975, 3.02374e-09, 0.00012095, 0.218019
 3876, 666.001, 0.974999, 3.76331e-09, 0.000150533, 0.218019
 3906, 671.001, 0.974999, 4.67294e-09, 0.000186918, 0.218019
 3936, 676.001, 0.974999, 5.78922e-09, 0.000231569, 0.21802
 3966, 681.001, 0.974999, 7.15606e-09, 0.000286242, 0.21802
 3996, 686.001, 0.974999, 8.82609e-09, 0.000353044, 0.21802
 4026, 691.001, 0.974998, 1.08622e-08, 0.000434488, 0.218021
 4056, 696.001, 0.974998, 1.33394e-08, 0.000533578, 0.218021
 4086, 701.001, 0.974998, 1.63471e-08, 0.000653885, 0.218022
 4116, 706.001, 0.974997, 1.99914e-08, 0.000799655, 0.218023
 4146, 711.001, 0.974997, 2.43981e-08, 0.000975924, 0.218024
 4176, 716.001, 0.974996, 2.97163e-08, 0.00118865, 0.218025
 4206, 721.001, 0.974995, 3.6122e-08, 0.00144488, 0.218027
 4236, 726.001, 0.974993, 4.38229e-08, 0.00175291, 0.218028
 4266, 731.001, 0.974992, 5.30632e-08, 0.00212253, 0.21803
 4296, 736.001, 0.97499, 6.41302e-08, 0.00256521, 0.218033
 4326, 741.001, 0.974988, 7.73607e-08, 0.00309443, 0.218036
 4356, 746.001, 0.974986, 9.3149e-08, 0.00372596, 0.218039
 4386, 751.001, 0.974983, 1.11956e-07, 0.00447825, 0.218044
 4416, 756.001, 0.974979, 1.34321e-07, 0.00537282, 0.218049
 4446, 761.001, 0.974974, 1.60869e-07, 0.00643474, 0.218055
 4476, 766.001, 0.974969, 1.92329e-07, 0.00769317, 0.218062
 4506, 771.001, 0.974963, 2.2955e-07, 0.00918198, 0.21807
 4536, 776.001, 0.974955, 2.73511e-07, 0.0109404, 0.21808
 4566, 781.001, 0.974946, 3.25349e-07, 0.013014, 0.218091
 4596, 786.001, 0.974936, 3.86378e-07, 0.0154551, 0.218105
 4626, 791.001, 0.974923, 4.58112e-07, 0.0183245, 0.21812
 4656, 796.001, 0.974908, 5.42299e-07, 0.021692, 0.218139
 4680, 800.001, 0.974894, 6.19954e-07, 0.0247982, 0.218156

File: birch_tga_1step_20_tga.csv
s,C,g/g,1/s,W/g,W/g
Time,Temp,Mass,MLR,MCC,DSC
 3, 21.0014, 0.999999, 2.18432e-07, 0.0000000E+000, 0.459601
 18, 26.0014, 0.999995, 4.32468e-07, 0.0000000E+000, 0.460078
 33, 31.0014, 0.999985, 8.36909e-07, 0.0000000E+000, 0.460981
 48, 36.0014, 0.999968, 1.58425e-06, 0.0000000E+000, 0.462648
 63, 41.0014, 0.999935, 2.9349e-06, 0.0000000E+000, 0.465658
 78, 46.0014, 0.999875, 5.32078e-06, 0.0000000E+000, 0.470974
 93, 51.0014, 0.999767, 9.43249e-06, 3.15659e-38, 0.480128
 108, 56.0014, 0.999578, 1.63183e-05, 1.90807e-37, 0.495447
 123, 61.0014, 0.999256, 2.74414e-05, 1.09291e-36, 0.520169
 138, 66.0014, 0.998725, 4.45431e-05, 5.94598e-36, 0.558128
 153, 71.0013, 0.997882, 6.89739e-05, 3.07954e-35, 0.612238
 168, 76.0013, 0.996621, 9.99575e-05, 1.52157e-34, 0.680587
 183, 81.0013, 0.994879, 0.000131523, 7.18629e-34, 0.749574
 198, 86.0012, 0.992741, 0.000149884, 3.25048e-33, 0.788117
 213, 91.0013, 0.990538, 0.00013763, 1.41058e-32, 0.757287
 228, 96.0013, 0.988788, 9.13137e-05, 5.88278e-32, 0.65002
 243, 101.001, 0.98784, 3.72118e-05, 2.36153e-31, 0.526279
 258, 106.001, 0.987544, 7.33278e-06, 9.13862e-31, 0.458275
 273, 111.001, 0.987502, 4.9318e-07, 3.41402e-30, 0.442749
 288, 116.001, 0.9875, 6.85133e-09, 1.23294e-29, 0.441646
 303, 121.001, 0.9875, 9.59621e-12, 4.30991e-29, 0.441631
 318, 126.001, 0.9875, 4.90975e-16, 1.46008e-28, 0.441631
 333, 131.001, 0.9875, 2.20505e-22, 4.79927e-28, 0.441631
 348, 136.001, 0.9875, 1.57307e-31, 1.53229e-27, 0.441631
 363, 141.001, 0.9875, 1.18925e-31, 4.75701e-27, 0.441631
 378, 146.001, 0.9875, 3.5936e-31, 1.43744e-26, 0.441631
 393, 151.001, 0.9875, 1.05794e-30, 4.23177e-26, 0.441631
 408, 156.001, 0.9875, 3.03716e-30, 1.21486e-25, 0.441631
 423, 161.001, 0.9875, 8.50987e-30, 3.40395e-25, 0.441631
 438, 166.001, 0.9875, 2.32911e-29, 9.31642e-25, 0.441631
 453, 171.001, 0.9875, 6.23176e-29, 2.4927e-24, 0.441631
 468, 176.001, 0.9875, 1.63123e-28, 6.52493e-24, 0.441631
 483, 181.001, 0.9875, 4.18041e-28, 1.67216e-23, 0.441631
 498, 186.001, 0.9875, 1.04959e-27, 4.19837e-23, 0.441631
 513, 191.001, 0.9875, 2.5835e-27, 1.0334e-22, 0.441631
 528, 196.001, 0.9875, 6.2382e-27, 2.49528e-22, 0.441631
 543, 201.001, 0.9875, 1.47854e-26, 5.91418e-22, 0.441631
 558, 206.001, 0.9875, 3.44182e-26, 1.37673e-21, 0.441631
 573, 211.001, 0.9875, 7.87341e-26, 3.14936e-21, 0.441631
 588, 216.001, 0.9875, 1.77088e-25, 7.08354e-21, 0.441631
 603, 221.001, 0.9875, 3.91826e-25, 1.56731e-20, 0.441631
 618, 226.001, 0.9875, 8.53272e-25, 3.41309e-20, 0.441631
 633, 231.001, 0.9875, 1.82969e-24, 7.31875e-20, 0.441631
 648, 236.001, 0.9875, 3.86509e-24, 1.54604e-19, 0.441631
 663, 241.001, 0.9875, 8.04684e-24, 3.21873e-19, 0.441631
 678, 246.001, 0.9875, 1.6518e-23, 6.60719e-19, 0.441631
 693, 251.001, 0.9875, 3.34448e-23, 1.33779e-18, 0.441631
 708, 256.001, 0.9875, 6.68208e-23, 2.67283e-18, 0.441631
 723, 261.001, 0.9875, 1.31785e-22, 5.27141e-18, 0.441631
 738, 266.001, 0.9875, 2.56656e-22, 1.02662e-17, 0.441631
 753, 271.001, 0.9875, 4.9376e-22, 1.97504e-17, 0.441631
 768, 276.001, 0.9875, 9.38655e-22, 3.75462e-17, 0.441631
 783, 281.001, 0.9875, 1.76385e-21, 7.0554e-17, 0.441631
 798, 286.001, 0.9875, 3.27731e-21, 1.31092e-16, 0.441631
 813, 291.001, 0.9875, 6.02287e-21, 2.40915e-16, 0.441631
 828, 296.001, 0.9875, 1.09508e-20, 4.38033e-16, 0.441631
 843, 301.001, 0.9875, 1.97046e-20, 7.88184e-16, 0.441631
 858, 306.001, 0.9875, 3.50981e-20, 1.40392e-15, 0.441631
 873, 311.001, 0.9875, 6.19023e-20, 2.47609e-15, 0.441631
 888, 316.001, 0.9875, 1.0813e-19, 4.32522e-15, 0.441631
 903, 321.001, 0.9875, 1.87116e-19, 7.48466e-15, 0.441631
 918, 326.001, 0.9875, 3.20849e-19, 1.2834e-14, 0.441631
 933, 331.001, 0.9875, 5.45272e-19, 2.18109e-14, 0.441631
 948, 336.001, 0.9875, 9.18639e-19, 3.67456e-14, 0.441631
 963, 341.001, 0.9875, 1.53457e-18, 6.1383e-14, 0.441631
 978, 346.001, 0.9875, 2.54233e-18, 1.01693e-13, 0.441631
 993, 351.001, 0.9875, 4.17795e-18, 1.67118e-13, 0.441631
 1008, 356.001, 0.9875, 6.81185e-18, 2.72474e-13, 0.441631
 1023, 361.001, 0.9875, 1.1021e-17, 4.40839e-13, 0.441631
 1038, 366.001, 0.9875, 1.76972e-17, 7.07889e-13, 0.441631
 1053, 371.001, 0.9875, 2.82096e-17, 1.12838e-12, 0.441631
 1068, 376.001, 0.9875, 4.46447e-17, 1.78579e-12, 0.441631
 1083, 381.001, 0.9875, 7.01608e-17, 2.80643e-12, 0.441631
 1098, 386.001, 0.9875, 1.09507e-16, 4.38027e-12, 0.441631
 1113, 391.001, 0.9875, 1.69776e-16, 6.79103e-12, 0.441631
 1128, 396.001, 0.9875, 2.61496e-16, 1.04598e-11, 0.441631
 1143, 401.001, 0.9875, 4.00195e-16, 1.60078e-11, 0.441631
 1158, 406.001, 0.9875, 6.08635e-16, 2.43454e-11, 0.441631
 1173, 411.001, 0.9875, 9.19986e-16, 3.67994e-11, 0.441631
 1188, 416.001, 0.9875, 1.3823e-15, 5.52919e-11, 0.441631
 1203, 421.001, 0.9875, 2.06478e-15, 8.25914e-11, 0.441631
 1218, 426.001, 0.9875, 3.06659e-15, 1.22663e-10, 0.441631
 1233, 431.001, 0.9875, 4.52894e-15, 1.81157e-10, 0.441631
 1248, 436.001, 0.9875, 6.65195e-15, 2.66078e-10, 0.441631
 1263, 441.001, 0.9875, 9.71772e-15, 3.88709e-10, 0.441631
 1278, 446.001, 0.9875, 1.41218e-14, 5.64873e-10, 0.441631
 1293, 451.001, 0.9875, 2.04162e-14, 8.16648e-10, 0.441631
 1308, 456.001, 0.9875, 2.93673e-14, 1.17469e-09, 0.441631
 1323, 461.001, 0.9875, 4.20342e-14, 1.68137e-09, 0.441631
 1338, 466.001, 0.9875, 5.98734e-14, 2.39494e-09, 0.441631
 1353, 471.001, 0.9875, 8.48791e-14, 3.39516e-09, 0.441631
 1368, 476.001, 0.9875, 1.19769e-13, 4.79076e-09, 0.441631
 1383, 481.001, 0.9875, 1.68231e-13, 6.72923e-09, 0.441631
 1398, 486.001, 0.9875, 2.35246e-13, 9.40984e-09, 0.441631
 1413, 491.001, 0.9875, 3.27517e-13, 1.31007e-08, 0.441631
 1428, 496.001, 0.9875, 4.54021e-13, 1.81609e-08, 0.441631
 1443, 501.001, 0.9875, 6.26739e-13, 2.50696e-08, 0.441631
 1458, 506.001, 0.9875, 8.6159e-13, 3.44636e-08, 0.441631
 1473, 511.001, 0.9875, 1.17965e-12, 4.71859e-08, 0.441631
 1488, 516.001, 0.9875, 1.6087e-12, 6.43478e-08, 0.441631
 1503, 521.001, 0.9875, 2.18524e-12, 8.74096e-08, 0.441631
 1518, 526.001, 0.9875, 2.95706e-12, 1.18282e-07, 0.441631
 1533, 531.001, 0.9875, 3.98646e-12, 1.59459e-07, 0.441631
 1548, 536.001, 0.9875, 5.35441e-12, 2.14177e-07, 0.441631
 1563, 541.001, 0.9875, 7.16576e-12, 2.8663e-07, 0.441631
 1578, 546.001, 0.9875, 9.55582e-12, 3.82233e-07, 0.441631
 1593, 551.001, 0.9875, 1.26986e-11, 5.07945e-07, 0.441631
 1608, 556.001, 0.9875, 1.68173e-11, 6.72692e-07, 0.441631
 1623, 561.001, 0.9875, 2.21969e-11, 8.87877e-07, 0.441631
 1638, 566.001, 0.9875, 2.92007e-11, 1.16803e-06, 0.441631
 1653, 571.001, 0.9875, 3.82898e-11, 1.53159e-06, 0.441631
 1668, 576.001, 0.9875, 5.0048e-11, 2.00192e-06, 0.441631
 1683, 581.001, 0.9875, 6.52121e-11, 2.60849e-06, 0.441631
 1698, 586.001, 0.9875, 8.47096e-11, 3.38838e-06, 0.441631
 1713, 591.001, 0.9875, 1.09704e-10, 4.38815e-06, 0.441631
 1728, 596.001, 0.9875, 1.41651e-10, 5.66604e-06, 0.441631
 1743, 601.001, 0.9875, 1.82367e-10, 7.29469e-06, 0.441631
 1758, 606.001, 0.9875, 2.34114e-10, 9.36455e-06, 0.441631
 1773, 611.001, 0.9875, 2.99695e-10, 1.19878e-05, 0.441631
 1788, 616.001, 0.9875, 3.82583e-10, 1.53033e-05, 0.441631
 1803, 621.001, 0.9875, 4.87064e-10, 1.94826e-05, 0.441631
 1818, 626.001, 0.9875, 6.18415e-10, 2.47366e-05, 0.441631
 1833, 631.001, 0.9875, 7.83119e-10, 3.13248e-05, 0.441631
 1848, 636.001, 0.9875, 9.89116e-10, 3.95646e-05, 0.441631
 1863, 641.001, 0.9875, 1.24611e-09, 4.98445e-05, 0.441631
 1878, 646.001, 0.9875, 1.56594e-09, 6.26377e-05, 0.441631
 1893, 651.001, 0.9875, 1.963e-09, 7.852e-05, 0.441631
 1908, 656.001, 0.9875, 2.45476e-09, 9.81904e-05, 0.441631
 1923, 661.001, 0.9875, 3.06238e-09, 0.000122495, 0.441632
 1938, 666.001, 0.9875, 3.81141e-09, 0.000152456, 0.441632
 1953, 671.001, 0.9875, 4.73266e-09, 0.000189306, 0.441632
 1968, 676.001, 0.9875, 5.8632e-09, 0.000234528, 0.441632
 1983, 681.001, 0.9875, 7.24752e-09, 0.000289901, 0.441633
 1998, 686.001, 0.987499, 8.9389e-09, 0.000357556, 0.441633
 2013, 691.001, 0.987499, 1.1001e-08, 0.000440042, 0.441633
 2028, 696.001, 0.987499, 1.35099e-08, 0.000540398, 0.441634
 2043, 701.001, 0.987499, 1.65561e-08, 0.000662243, 0.441635
 2058, 706.001, 0.987499, 2.02469e-08, 0.000809877, 0.441636
 2073, 711.001, 0.987498, 2.471e-08, 0.000988401, 0.441637
 2088, 716.001, 0.987498, 3.00962e-08, 0.00120385, 0.441638
 2103, 721.001, 0.987497, 3.65839e-08, 0.00146336, 0.441639
 2118, 726.001, 0.987497, 4.43832e-08, 0.00177533, 0.441641
 2133, 731.001, 0.987496, 5.37418e-08, 0.00214967, 0.441643
 2148, 736.001, 0.987495, 6.49504e-08, 0.00259802, 0.441646
 2163, 741.001, 0.987494, 7.83502e-08, 0.00313401, 0.441649
 2178, 746.001, 0.987493, 9.43407e-08, 0.00377363, 0.441652
 2193, 751.001, 0.987491, 1.13389e-07, 0.00453556, 0.441656
 2208, 756.001, 0.987489, 1.3604e-07, 0.00544159, 0.441661
 2223, 761.001, 0.987487, 1.62928e-07, 0.00651712, 0.441668
 2238, 766.001, 0.987484, 1.94792e-07, 0.00779169, 0.441675
 2253, 771.001, 0.987481, 2.3249e-07, 0.0092996, 0.441683
 2268, 776.001, 0.987477, 2.77016e-07, 0.0110806, 0.441693
 2283, 781.001, 0.987473, 3.2952e-07, 0.0131808, 0.441704
 2298, 786.001, 0.987467, 3.91334e-07, 0.0156534, 0.441718
 2313, 791.001, 0.987461, 4.63992e-07, 0.0185597, 0.441734
 2328, 796.001, 0.987453, 5.49265e-07, 0.0219706, 0.441753
 2340, 800.001, 0.987446, 6.27923e-07, 0.0251169, 0.44177