Folder: PyroPython/examples/Birch_TGA_Example/Work/Cone_x4pclkgu (part 2)

File: birch_tga_1step_10_tga.csv
s,C,g/g,1/s,W/g,W/g
Time,Temp,Mass,MLR,MCC,DSC
 6, 21.0007, 0.999998, 4.369e-07, 0.0000000E+000, 0.236481
 36, 26.0007, 0.999979, 8.64679e-07, 0.0000000E+000, 0.237436
 66, 31.0007, 0.999942, 1.67208e-06, 0.0000000E+000, 0.239238
 96, 36.0007, 0.999872, 3.16074e-06, 0.0000000E+000, 0.242557
 126, 41.0007, 0.99974, 5.83993e-06, 0.0000000E+000, 0.248528
 156, 46.0007, 0.999501, 1.0536e-05, 0.0000000E+000, 0.258988
 186, 51.0007, 0.999076, 1.85149e-05, 0.0000000E+000, 0.276746
 216, 56.0007, 0.99834, 3.15376e-05, 0.0000000E+000, 0.305701
 246, 61.0006, 0.997112, 5.1621e-05, 0.0000000E+000, 0.350289
 276, 66.0006, 0.995158, 8.00034e-05, 0.0000000E+000, 0.413148
 306, 71.0006, 0.992247, 0.000114589, 0.0000000E+000, 0.489374
 336, 76.0005, 0.988312, 0.000145893, 0.0000000E+000, 0.557452
 366, 81.0005, 0.983712, 0.000155296, 0.0000000E+000, 0.575505
 396, 86.0005, 0.979394, 0.000125686, 0.0000000E+000, 0.505472
 426, 91.0006, 0.976476, 6.69e-05, 0.0000000E+000, 0.370411
 456, 96.0007, 0.975266, 1.88216e-05, 0.0000000E+000, 0.260783
 486, 101.001, 0.975018, 2.02144e-06, 0.0000000E+000, 0.222604
 516, 106.001, 0.975, 5.13397e-08, 0.0000000E+000, 0.218135
 546, 111.001, 0.975, 1.53537e-10, 0.0000000E+000, 0.218019
 576, 116.001, 0.975, 1.97906e-14, 0.0000000E+000, 0.218018
 606, 121.001, 0.975, 2.6181e-20, 0.0000000E+000, 0.218018
 636, 126.001, 0.975, 4.66309e-29, 0.0000000E+000, 0.218018
 666, 131.001, 0.975, 0.0000000E+000, 1.87949e-38, 0.218018
 696, 136.001, 0.975, 0.0000000E+000, 8.32024e-38, 0.218018
 726, 141.001, 0.975, 0.0000000E+000, 3.5533e-37, 0.218018
 756, 146.001, 0.975, 0.0000000E+000, 1.46583e-36, 0.218018
 786, 151.001, 0.975, 0.0000000E+000, 5.84827e-36, 0.218018
 816, 156.001, 0.975, 0.0000000E+000, 2.25926e-35, 0.218018
 846, 161.001, 0.975, 0.0000000E+000, 8.46033e-35, 0.218018
 876, 166.001, 0.975, 0.0000000E+000, 3.07433e-34, 0.218018
 906, 171.001, 0.975, 2.71292e-38, 1.08517e-33, 0.218018
 936, 176.001, 0.975, 9.31082e-38, 3.72433e-33, 0.218018
 966, 181.001, 0.975, 3.1099e-37, 1.24396e-32, 0.218018
 996, 186.001, 0.975, 1.01181e-36, 4.04723e-32, 0.218018
 1026, 191.001, 0.975, 3.20931e-36, 1.28372e-31, 0.218018
 1056, 196.001, 0.975, 9.93204e-36, 3.97282e-31, 0.218018
 1086, 201.001, 0.975, 3.00136e-35, 1.20054e-30, 0.218018
 1116, 206.001, 0.975, 8.86288e-35, 3.54515e-30, 0.218018
 1146, 211.001, 0.975, 2.55928e-34, 1.02371e-29, 0.218018
 1176, 216.001, 0.975, 7.23179e-34, 2.89272e-29, 0.218018
 1206, 221.001, 0.975, 2.00099e-33, 8.00396e-29, 0.218018
 1236, 226.001, 0.975, 5.42486e-33, 2.16994e-28, 0.218018
 1266, 231.001, 0.975, 1.44192e-32, 5.76767e-28, 0.218018
 1296, 236.001, 0.975, 3.75971e-32, 1.50388e-27, 0.218018
 1326, 241.001, 0.975, 9.62216e-32, 3.84886e-27, 0.218018
 1356, 246.001, 0.975, 2.41841e-31, 9.67363e-27, 0.218018
 1386, 251.001, 0.975, 5.97242e-31, 2.38897e-26, 0.218018
 1416, 256.001, 0.975, 1.44994e-30, 5.79978e-26, 0.218018
 1446, 261.001, 0.975, 3.46211e-30, 1.38484e-25, 0.218018
 1476, 266.001, 0.975, 8.13428e-30, 3.25371e-25, 0.218018
 1506, 271.001, 0.975, 1.8814e-29, 7.52559e-25, 0.218018
 1536, 276.001, 0.975, 4.28558e-29, 1.71423e-24, 0.218018
 1566, 281.001, 0.975, 9.61806e-29, 3.84723e-24, 0.218018
 1596, 286.001, 0.975, 2.12758e-28, 8.51033e-24, 0.218018
 1626, 291.001, 0.975, 4.6406e-28, 1.85624e-23, 0.218018
 1656, 296.001, 0.975, 9.98413e-28, 3.99365e-23, 0.218018
 1686, 301.001, 0.975, 2.11959e-27, 8.47835e-23, 0.218018
 1716, 306.001, 0.975, 4.44168e-27, 1.77667e-22, 0.218018
 1746, 311.001, 0.975, 9.19058e-27, 3.67623e-22, 0.218018
 1776, 316.001, 0.975, 1.87836e-26, 7.51343e-22, 0.218018
 1806, 321.001, 0.975, 3.79305e-26, 1.51722e-21, 0.218018
 1836, 326.001, 0.975, 7.57016e-26, 3.02807e-21, 0.218018
 1866, 331.001, 0.975, 1.49367e-25, 5.97467e-21, 0.218018
 1896, 336.001, 0.975, 2.91446e-25, 1.16578e-20, 0.218018
 1926, 341.001, 0.975, 5.62515e-25, 2.25006e-20, 0.218018
 1956, 346.001, 0.975, 1.07423e-24, 4.29694e-20, 0.218018
 1986, 351.001, 0.975, 2.03031e-24, 8.12123e-20, 0.218018
 2016, 356.001, 0.975, 3.79866e-24, 1.51946e-19, 0.218018
 2046, 361.001, 0.975, 7.03734e-24, 2.81493e-19, 0.218018
 2076, 366.001, 0.975, 1.29121e-23, 5.16484e-19, 0.218018
 2106, 371.001, 0.975, 2.34689e-23, 9.38758e-19, 0.218018
 2136, 376.001, 0.975, 4.22661e-23, 1.69065e-18, 0.218018
 2166, 381.001, 0.975, 7.54372e-23, 3.01749e-18, 0.218018
 2196, 386.001, 0.975, 1.33463e-22, 5.33854e-18, 0.218018
 2226, 391.001, 0.975, 2.34103e-22, 9.36414e-18, 0.218018
 2256, 396.001, 0.975, 4.07199e-22, 1.62879e-17, 0.218018
 2286, 401.001, 0.975, 7.02488e-22, 2.80995e-17, 0.218018
 2316, 406.001, 0.975, 1.20222e-21, 4.80888e-17, 0.218018
 2346, 411.001, 0.975, 2.04136e-21, 8.16542e-17, 0.218018
 2376, 416.001, 0.975, 3.43967e-21, 1.37587e-16, 0.218018
 2406, 421.001, 0.975, 5.75242e-21, 2.30097e-16, 0.218018
 2436, 426.001, 0.975, 9.5497e-21, 3.81988e-16, 0.218018
 2466, 431.001, 0.975, 1.57399e-20, 6.29597e-16, 0.218018
 2496, 436.001, 0.975, 2.57606e-20, 1.03042e-15, 0.218018
 2526, 441.001, 0.975, 4.18709e-20, 1.67484e-15, 0.218018
 2556, 446.001, 0.975, 6.75983e-20, 2.70393e-15, 0.218018
 2586, 451.001, 0.975, 1.08414e-19, 4.33658e-15, 0.218018
 2616, 456.001, 0.975, 1.72752e-19, 6.9101e-15, 0.218018
 2646, 461.001, 0.975, 2.7353e-19, 1.09412e-14, 0.218018
 2676, 466.001, 0.975, 4.30414e-19, 1.72166e-14, 0.218018
 2706, 471.001, 0.975, 6.73165e-19, 2.69266e-14, 0.218018
 2736, 476.001, 0.975, 1.04656e-18, 4.18624e-14, 0.218018
 2766, 481.001, 0.975, 1.61758e-18, 6.47032e-14, 0.218018
 2796, 486.001, 0.975, 2.48586e-18, 9.94343e-14, 0.218018
 2826, 491.001, 0.975, 3.79878e-18, 1.51951e-13, 0.218018
 2856, 496.001, 0.975, 5.77322e-18, 2.30929e-13, 0.218018
 2886, 501.001, 0.975, 8.72658e-18, 3.49063e-13, 0.218018
 2916, 506.001, 0.975, 1.3121e-17, 5.2484e-13, 0.218018
 2946, 511.001, 0.975, 1.9626e-17, 7.85039e-13, 0.218018
 2976, 516.001, 0.975, 2.92065e-17, 1.16826e-12, 0.218018
 3006, 521.001, 0.975, 4.32468e-17, 1.72987e-12, 0.218018
 3036, 526.001, 0.975, 6.37229e-17, 2.54892e-12, 0.218018
 3066, 531.001, 0.975, 9.34422e-17, 3.73769e-12, 0.218018
 3096, 536.001, 0.975, 1.36375e-16, 5.45502e-12, 0.218018
 3126, 541.001, 0.975, 1.98113e-16, 7.92452e-12, 0.218018
 3156, 546.001, 0.975, 2.8649e-16, 1.14596e-11, 0.218018
 3186, 551.001, 0.975, 4.12441e-16, 1.64977e-11, 0.218018
 3216, 556.001, 0.975, 5.91162e-16, 2.36465e-11, 0.218018
 3246, 561.001, 0.975, 8.43677e-16, 3.37471e-11, 0.218018
 3276, 566.001, 0.975, 1.19896e-15, 4.79585e-11, 0.218018
 3306, 571.001, 0.975, 1.69678e-15, 6.78713e-11, 0.218018
 3336, 576.001, 0.975, 2.39151e-15, 9.56602e-11, 0.218018
 3366, 581.001, 0.975, 3.35715e-15, 1.34286e-10, 0.218018
 3396, 586.001, 0.975, 4.69415e-15, 1.87766e-10, 0.218018
 3426, 591.001, 0.975, 6.53819e-15, 2.61528e-10, 0.218018
 3456, 596.001, 0.975, 9.07199e-15, 3.6288e-10, 0.218018
 3486, 601.001, 0.975, 1.25407e-14, 5.01626e-10, 0.218018
 3516, 606.001, 0.975, 1.72718e-14, 6.90874e-10, 0.218018
 3546, 611.001, 0.975, 2.3702e-14, 9.48079e-10, 0.218018
 3576, 616.001, 0.975, 3.24104e-14, 1.29642e-09, 0.218018
 3606, 621.001, 0.975, 4.41637e-14, 1.76655e-09, 0.218018
 3636, 626.001, 0.975, 5.99723e-14, 2.39889e-09, 0.218018
 3666, 631.001, 0.975, 8.11647e-14, 3.24659e-09, 0.218018
 3696, 636.001, 0.975, 1.09481e-13, 4.37923e-09, 0.218018
 3726, 641.001, 0.975, 1.47193e-13, 5.88771e-09, 0.218018
 3756, 646.001, 0.975, 1.97259e-13, 7.89036e-09, 0.218018
 3786, 651.001, 0.975, 2.63518e-13, 1.05407e-08, 0.218018
 3816, 656.001, 0.975, 3.50939e-13, 1.40376e-08, 0.218018
 3846, 661.001, 0.975, 4.6593e-13, 1.86372e-08, 0.218018
 3876, 666.001, 0.975, 6.16735e-13, 2.46694e-08, 0.218018
 3906, 671.001, 0.975, 8.1393e-13, 3.25572e-08, 0.218018
 3936, 676.001, 0.975, 1.07104e-12, 4.28416e-08, 0.218018
 3966, 681.001, 0.975, 1.40532e-12, 5.62128e-08, 0.218018
 3996, 686.001, 0.975, 1.83872e-12, 7.35487e-08, 0.218018
 4026, 691.001, 0.975, 2.39907e-12, 9.5963e-08, 0.218018
 4056, 696.001, 0.975, 3.12162e-12, 1.24865e-07, 0.218018
 4086, 701.001, 0.975, 4.05082e-12, 1.62033e-07, 0.218018
 4116, 706.001, 0.975, 5.24264e-12, 2.09706e-07, 0.218018
 4146, 711.001, 0.975, 6.76736e-12, 2.70695e-07, 0.218018
 4176, 716.001, 0.975, 8.713e-12, 3.4852e-07, 0.218018
 4206, 721.001, 0.975, 1.11895e-11, 4.47581e-07, 0.218018
 4236, 726.001, 0.975, 1.43341e-11, 5.73362e-07, 0.218018
 4266, 731.001, 0.975, 1.8317e-11, 7.32681e-07, 0.218018
 4296, 736.001, 0.975, 2.33499e-11, 9.33997e-07, 0.218018
 4326, 741.001, 0.975, 2.96945e-11, 1.18778e-06, 0.218018
 4356, 746.001, 0.975, 3.76741e-11, 1.50696e-06, 0.218018
 4386, 751.001, 0.975, 4.7687e-11, 1.90748e-06, 0.218018
 4416, 756.001, 0.975, 6.02231e-11, 2.40892e-06, 0.218018
 4446, 761.001, 0.975, 7.58833e-11, 3.03533e-06, 0.218018
 4476, 766.001, 0.975, 9.54031e-11, 3.81613e-06, 0.218018
 4506, 771.001, 0.975, 1.19682e-10, 4.78726e-06, 0.218018
 4536, 776.001, 0.975, 1.49814e-10, 5.99257e-06, 0.218018
 4566, 781.001, 0.975, 1.87135e-10, 7.48538e-06, 0.218018
 4596, 786.001, 0.975, 2.33261e-10, 9.33045e-06, 0.218018
 4626, 791.001, 0.975, 2.90157e-10, 1.16063e-05, 0.218018
 4656, 796.001, 0.975, 3.60193e-10, 1.44077e-05, 0.218019
 4680, 800.001, 0.975, 4.2759e-10, 1.71036e-05, 0.218018

File: birch_tga_1step_20_tga.csv
s,C,g/g,1/s,W/g,W/g
Time,Temp,Mass,MLR,MCC,DSC
 3, 21.0014, 0.999999, 2.18432e-07, 0.0000000E+000, 0.459601
 18, 26.0014, 0.999995, 4.32468e-07, 0.0000000E+000, 0.460078
 33, 31.0014, 0.999985, 8.36909e-07, 0.0000000E+000, 0.460981
 48, 36.0014, 0.999968, 1.58425e-06, 0.0000000E+000, 0.462648
 63, 41.0014, 0.999935, 2.9349e-06, 0.0000000E+000, 0.465658
 78, 46.0014, 0.999875, 5.32078e-06, 0.0000000E+000, 0.470974
 93, 51.0014, 0.999767, 9.43249e-06, 0.0000000E+000, 0.480128
 108, 56.0014, 0.999578, 1.63183e-05, 0.0000000E+000, 0.495447
 123, 61.0014, 0.999256, 2.74414e-05, 0.0000000E+000, 0.520169
 138, 66.0014, 0.998725, 4.45431e-05, 0.0000000E+000, 0.558128
 153, 71.0013, 0.997882, 6.89739e-05, 0.0000000E+000, 0.612238
 168, 76.0013, 0.996621, 9.99575e-05, 0.0000000E+000, 0.680587
 183, 81.0013, 0.994879, 0.000131523, 0.0000000E+000, 0.749574
 198, 86.0012, 0.992741, 0.000149884, 0.0000000E+000, 0.788117
 213, 91.0013, 0.990538, 0.00013763, 0.0000000E+000, 0.757287
 228, 96.0013, 0.988788, 9.13137e-05, 0.0000000E+000, 0.65002
 243, 101.001, 0.98784, 3.72118e-05, 0.0000000E+000, 0.526279
 258, 106.001, 0.987544, 7.33278e-06, 0.0000000E+000, 0.458275
 273, 111.001, 0.987502, 4.9318e-07, 0.0000000E+000, 0.442749
 288, 116.001, 0.9875, 6.85133e-09, 0.0000000E+000, 0.441646
 303, 121.001, 0.9875, 9.59621e-12, 0.0000000E+000, 0.441631
 318, 126.001, 0.9875, 4.90975e-16, 0.0000000E+000, 0.441631
 333, 131.001, 0.9875, 2.20505e-22, 1.90304e-38, 0.441631
 348, 136.001, 0.9875, 1.19e-31, 8.42454e-38, 0.441631
 363, 141.001, 0.9875, 0.0000000E+000, 3.59786e-37, 0.441631
 378, 146.001, 0.9875, 0.0000000E+000, 1.48423e-36, 0.441631
 393, 151.001, 0.9875, 0.0000000E+000, 5.9217e-36, 0.441631
 408, 156.001, 0.9875, 0.0000000E+000, 2.28764e-35, 0.441631
 423, 161.001, 0.9875, 0.0000000E+000, 8.56666e-35, 0.441631
 438, 166.001, 0.9875, 0.0000000E+000, 3.11298e-34, 0.441631
 453, 171.001, 0.9875, 2.74704e-38, 1.09882e-33, 0.441631
 468, 176.001, 0.9875, 9.42799e-38, 3.77119e-33, 0.441631
 483, 181.001, 0.9875, 3.14905e-37, 1.25962e-32, 0.441631
 498, 186.001, 0.9875, 1.02455e-36, 4.0982e-32, 0.441631
 513, 191.001, 0.9875, 3.24974e-36, 1.2999e-31, 0.441631
 528, 196.001, 0.9875, 1.00572e-35, 4.02289e-31, 0.441631
 543, 201.001, 0.9875, 3.0392e-35, 1.21568e-30, 0.441631
 558, 206.001, 0.9875, 8.97466e-35, 3.58987e-30, 0.441631
 573, 211.001, 0.9875, 2.59157e-34, 1.03663e-29, 0.441631
 588, 216.001, 0.9875, 7.32307e-34, 2.92923e-29, 0.441631
 603, 221.001, 0.9875, 2.02625e-33, 8.10501e-29, 0.441631
 618, 226.001, 0.9875, 5.49337e-33, 2.19735e-28, 0.441631
 633, 231.001, 0.9875, 1.46013e-32, 5.84053e-28, 0.441631
 648, 236.001, 0.9875, 3.80722e-32, 1.52289e-27, 0.441631
 663, 241.001, 0.9875, 9.74378e-32, 3.89751e-27, 0.441631
 678, 246.001, 0.9875, 2.44899e-31, 9.79594e-27, 0.441631
 693, 251.001, 0.9875, 6.04795e-31, 2.41918e-26, 0.441631
 708, 256.001, 0.9875, 1.46829e-30, 5.87315e-26, 0.441631
 723, 261.001, 0.9875, 3.50592e-30, 1.40237e-25, 0.441631
 738, 266.001, 0.9875, 8.23723e-30, 3.29489e-25, 0.441631
 753, 271.001, 0.9875, 1.90521e-29, 7.62086e-25, 0.441631
 768, 276.001, 0.9875, 4.33985e-29, 1.73594e-24, 0.441631
 783, 281.001, 0.9875, 9.73988e-29, 3.89595e-24, 0.441631
 798, 286.001, 0.9875, 2.15454e-28, 8.61814e-24, 0.441631
 813, 291.001, 0.9875, 4.6994e-28, 1.87976e-23, 0.441631
 828, 296.001, 0.9875, 1.01107e-27, 4.04426e-23, 0.441631
 843, 301.001, 0.9875, 2.14645e-27, 8.58582e-23, 0.441631
 858, 306.001, 0.9875, 4.49799e-27, 1.7992e-22, 0.441631
 873, 311.001, 0.9875, 9.30712e-27, 3.72285e-22, 0.441631
 888, 316.001, 0.9875, 1.90218e-26, 7.60872e-22, 0.441631
 903, 321.001, 0.9875, 3.84117e-26, 1.53647e-21, 0.441631
 918, 326.001, 0.9875, 7.66621e-26, 3.06648e-21, 0.441631
 933, 331.001, 0.9875, 1.51262e-25, 6.05049e-21, 0.441631
 948, 336.001, 0.9875, 2.95145e-25, 1.18058e-20, 0.441631
 963, 341.001, 0.9875, 5.69656e-25, 2.27862e-20, 0.441631
 978, 346.001, 0.9875, 1.08787e-24, 4.35149e-20, 0.441631
 993, 351.001, 0.9875, 2.05609e-24, 8.22435e-20, 0.441631
 1008, 356.001, 0.9875, 3.8469e-24, 1.53876e-19, 0.441631
 1023, 361.001, 0.9875, 7.12672e-24, 2.85069e-19, 0.441631
 1038, 366.001, 0.9875, 1.30761e-23, 5.23045e-19, 0.441631
 1053, 371.001, 0.9875, 2.37671e-23, 9.50685e-19, 0.441631
 1068, 376.001, 0.9875, 4.28032e-23, 1.71213e-18, 0.441631
 1083, 381.001, 0.9875, 7.6396e-23, 3.05584e-18, 0.441631
 1098, 386.001, 0.9875, 1.3516e-22, 5.40639e-18, 0.441631
 1113, 391.001, 0.9875, 2.37079e-22, 9.48318e-18, 0.441631
 1128, 396.001, 0.9875, 4.12376e-22, 1.6495e-17, 0.441631
 1143, 401.001, 0.9875, 7.1142e-22, 2.84568e-17, 0.441631
 1158, 406.001, 0.9875, 1.21751e-21, 4.87004e-17, 0.441631
 1173, 411.001, 0.9875, 2.06732e-21, 8.26928e-17, 0.441631
 1188, 416.001, 0.9875, 3.48342e-21, 1.39337e-16, 0.441631
 1203, 421.001, 0.9875, 5.8256e-21, 2.33024e-16, 0.441631
 1218, 426.001, 0.9875, 9.6712e-21, 3.86848e-16, 0.441631
 1233, 431.001, 0.9875, 1.59402e-20, 6.37609e-16, 0.441631
 1248, 436.001, 0.9875, 2.60884e-20, 1.04354e-15, 0.441631
 1263, 441.001, 0.9875, 4.24038e-20, 1.69615e-15, 0.441631
 1278, 446.001, 0.9875, 6.84588e-20, 2.73835e-15, 0.441631
 1293, 451.001, 0.9875, 1.09794e-19, 4.39178e-15, 0.441631
 1308, 456.001, 0.9875, 1.74952e-19, 6.99807e-15, 0.441631
 1323, 461.001, 0.9875, 2.77013e-19, 1.10805e-14, 0.441631
 1338, 466.001, 0.9875, 4.35895e-19, 1.74358e-14, 0.441631
 1353, 471.001, 0.9875, 6.81738e-19, 2.72695e-14, 0.441631
 1368, 476.001, 0.9875, 1.05989e-18, 4.23956e-14, 0.441631
 1383, 481.001, 0.9875, 1.63818e-18, 6.55273e-14, 0.441631
 1398, 486.001, 0.9875, 2.51752e-18, 1.00701e-13, 0.441631
 1413, 491.001, 0.9875, 3.84717e-18, 1.53887e-13, 0.441631
 1428, 496.001, 0.9875, 5.84677e-18, 2.33871e-13, 0.441631
 1443, 501.001, 0.9875, 8.83777e-18, 3.53511e-13, 0.441631
 1458, 506.001, 0.9875, 1.32882e-17, 5.31528e-13, 0.441631
 1473, 511.001, 0.9875, 1.98761e-17, 7.95043e-13, 0.441631
 1488, 516.001, 0.9875, 2.95787e-17, 1.18315e-12, 0.441631
 1503, 521.001, 0.9875, 4.3798e-17, 1.75192e-12, 0.441631
 1518, 526.001, 0.9875, 6.45351e-17, 2.5814e-12, 0.441631
 1533, 531.001, 0.9875, 9.46333e-17, 3.78533e-12, 0.441631
 1548, 536.001, 0.9875, 1.38114e-16, 5.52456e-12, 0.441631
 1563, 541.001, 0.9875, 2.00639e-16, 8.02554e-12, 0.441631
 1578, 546.001, 0.9875, 2.90143e-16, 1.16057e-11, 0.441631
 1593, 551.001, 0.9875, 4.177e-16, 1.6708e-11, 0.441631
 1608, 556.001, 0.9875, 5.987e-16, 2.3948e-11, 0.441631
 1623, 561.001, 0.9875, 8.54436e-16, 3.41774e-11, 0.441631
 1638, 566.001, 0.9875, 1.21425e-15, 4.85701e-11, 0.441631
 1653, 571.001, 0.9875, 1.71842e-15, 6.87369e-11, 0.441631
 1668, 576.001, 0.9875, 2.42201e-15, 9.68803e-11, 0.441631
 1683, 581.001, 0.9875, 3.39997e-15, 1.35999e-10, 0.441631
 1698, 586.001, 0.9875, 4.75403e-15, 1.90161e-10, 0.441631
 1713, 591.001, 0.9875, 6.62159e-15, 2.64864e-10, 0.441631
 1728, 596.001, 0.9875, 9.18772e-15, 3.67509e-10, 0.441631
 1743, 601.001, 0.9875, 1.27007e-14, 5.08026e-10, 0.441631
 1758, 606.001, 0.9875, 1.74922e-14, 6.99688e-10, 0.441631
 1773, 611.001, 0.9875, 2.40044e-14, 9.60176e-10, 0.441631
 1788, 616.001, 0.9875, 3.2824e-14, 1.31296e-09, 0.441631
 1803, 621.001, 0.9875, 4.47272e-14, 1.78909e-09, 0.441631
 1818, 626.001, 0.9875, 6.07377e-14, 2.42951e-09, 0.441631
 1833, 631.001, 0.9875, 8.22005e-14, 3.28802e-09, 0.441631
 1848, 636.001, 0.9875, 1.10878e-13, 4.43512e-09, 0.441631
 1863, 641.001, 0.9875, 1.49071e-13, 5.96286e-09, 0.441631
 1878, 646.001, 0.9875, 1.99777e-13, 7.99107e-09, 0.441631
 1893, 651.001, 0.9875, 2.66882e-13, 1.06753e-08, 0.441631
 1908, 656.001, 0.9875, 3.55419e-13, 1.42168e-08, 0.441631
 1923, 661.001, 0.9875, 4.71878e-13, 1.88751e-08, 0.441631
 1938, 666.001, 0.9875, 6.24609e-13, 2.49844e-08, 0.441631
 1953, 671.001, 0.9875, 8.24322e-13, 3.29729e-08, 0.441631
 1968, 676.001, 0.9875, 1.08472e-12, 4.33886e-08, 0.441631
 1983, 681.001, 0.9875, 1.42326e-12, 5.69306e-08, 0.441631
 1998, 686.001, 0.9875, 1.8622e-12, 7.44878e-08, 0.441631
 2013, 691.001, 0.9875, 2.42971e-12, 9.71883e-08, 0.441631
 2028, 696.001, 0.9875, 3.16148e-12, 1.26459e-07, 0.441631
 2043, 701.001, 0.9875, 4.10255e-12, 1.64102e-07, 0.441631
 2058, 706.001, 0.9875, 5.3096e-12, 2.12384e-07, 0.441631
 2073, 711.001, 0.9875, 6.85379e-12, 2.74152e-07, 0.441631
 2088, 716.001, 0.9875, 8.82428e-12, 3.52971e-07, 0.441631
 2103, 721.001, 0.9875, 1.13325e-11, 4.53298e-07, 0.441631
 2118, 726.001, 0.9875, 1.45171e-11, 5.80685e-07, 0.441631
 2133, 731.001, 0.9875, 1.8551e-11, 7.42039e-07, 0.441631
 2148, 736.001, 0.9875, 2.36482e-11, 9.45927e-07, 0.441631
 2163, 741.001, 0.9875, 3.00738e-11, 1.20295e-06, 0.441631
 2178, 746.001, 0.9875, 3.81554e-11, 1.52622e-06, 0.441631
 2193, 751.001, 0.9875, 4.82963e-11, 1.93185e-06, 0.441631
 2208, 756.001, 0.9875, 6.09925e-11, 2.4397e-06, 0.441631
 2223, 761.001, 0.9875, 7.68527e-11, 3.07411e-06, 0.441631
 2238, 766.001, 0.9875, 9.6622e-11, 3.86488e-06, 0.441631
 2253, 771.001, 0.9875, 1.21211e-10, 4.84843e-06, 0.441631
 2268, 776.001, 0.9875, 1.51728e-10, 6.06914e-06, 0.441631
 2283, 781.001, 0.9875, 1.89526e-10, 7.58103e-06, 0.441631
 2298, 786.001, 0.9875, 2.36242e-10, 9.44968e-06, 0.441631
 2313, 791.001, 0.9875, 2.93864e-10, 1.17546e-05, 0.441631
 2328, 796.001, 0.9875, 3.64796e-10, 1.45918e-05, 0.441631
 2340, 800.001, 0.9875, 4.33054e-10, 1.73222e-05, 0.441631