Folder: PyroPython/examples/Birch_TGA_Example/Work/Cone_zba3hngy

Note: Readme.md
# PyroPython -- Parameter estimation for FDS pyrolysis models in python

This is simple python script that attempts to indentify pyrolysis parameters for FDS. The program si divided into three parts:

model.py - this file containse the claa Model. Contains functions for reading datafiles, fitness evaluation and running FDS and postprocessing FDS outputs
config.py - provides configuration management
pyropython.py - main executable 

currently all these files need to be in the same directory. TODO: more sensible packaging

As it is now, the program uses scikit optimize [https://github.com/scikit-optimize/scikit-optimize] to optimize the model. Scikit-optimize uses sequential model-based optimization (also known as Bayesian Optimization).  The optimization uses a response surface fitted to the model evaluations to guide the optimization. TODO: add GAs such as shuffled-complex-evolution. (possibly using SPOTPY [http://fb09-pasig.umwelt.uni-giessen.de/spotpy/])

## Prerequisites

-FDS 
-Python 3
-Python packages: Numpy, Scipy, Matplotlib, pandas, yaml, scikit-optimize

Esiest way to install the prerequiaites

1. Install Anaconda (or miniconda) [https://www.anaconda.com/download/#linux]
2. Type: 
```
 conda install pandas scikit-learn
 conda install -c conda-forge scikit-optimize
```
Matplotlib and numpy should already be included in the download of anaconda, if you downloaded miniconda or otherwise are missing packages:
```
 conda install numpy scipy matploltib 
```

## Usage

Test installation by typing:

```
 python pyropython.py -h

```

This should output the following help text

```
usage: pyropython.py [-h] [-v VERBOSITY] [-n NUM_JOBS] [-m MAX_ITER]
                     [-i NUM_INITIAL] [-p NUM_POINTS]
                     fname

positional arguments:
  fname                 Input file name

optional arguments:
  -h, --help            show this help message and exit
  -v VERBOSITY, --verbosity VERBOSITY
                        increase output verbosity
  -n NUM_JOBS, --num_jobs NUM_JOBS
                        number of concurrent jobs
  -m MAX_ITER, --max_iter MAX_ITER
                        maximum number of iterations
  -i NUM_INITIAL, --num_initial NUM_INITIAL
                        number of points in initial design
  -p NUM_POINTS, --num_points NUM_POINTS
                        number of points per iteration
```

## input files

The input files are standard FDS input files with following additions

1. Theres should be a configuration block somewhere in the .fds file. The configuration is given in YAML format [https://en.wikipedia.org/wiki/YAML]. The configuration is placed between #config_start and #config_end blocks as follows 
```
#config_start

... configuration goes here

#config_end
```
2. The Variables that are to be optimized shall be replaced with $var_name (e.g. dollar sign followed by the variable name). For example:
```
#config_start
...
variables:
          VAR1: [ 0.1, 0.5]
...
#config_end

...

&MATL ID="ACME STUFF"
      

File: birch_tga_1step_2_tga.csv
s,C,g/g,1/s,W/g,W/g
Time,Temp,Mass,MLR,MCC,DSC
 30, 21.0001, 0.999987, 4.80453e-07, 0.0000000E+000, 0.0484218
 180, 26.0001, 0.999883, 9.4801e-07, 0.0000000E+000, 0.0494653
 330, 31.0001, 0.999682, 1.82243e-06, 0.0000000E+000, 0.0514158
 480, 36.0001, 0.999301, 3.40628e-06, 0.0000000E+000, 0.0549465
 630, 41.0001, 0.998602, 6.16185e-06, 0.0000000E+000, 0.0610839
 780, 46.0001, 0.997364, 1.06929e-05, 0.0000000E+000, 0.0711637
 930, 51.0001, 0.995278, 1.75185e-05, 3.07334e-38, 0.0863168
 1080, 56.0001, 0.992004, 2.63566e-05, 1.85771e-37, 0.105858
 1230, 61.0001, 0.987387, 3.47561e-05, 1.06405e-36, 0.124218
 1380, 66.0001, 0.981873, 3.72041e-05, 5.78889e-36, 0.128986
 1530, 71.0001, 0.976798, 2.85552e-05, 2.99817e-35, 0.108706
 1680, 76.0001, 0.973677, 1.29016e-05, 1.48136e-34, 0.0728489
 1830, 81.0001, 0.972641, 2.51929e-06, 6.99641e-34, 0.0492118
 1980, 86.0001, 0.972505, 1.31928e-07, 3.16457e-33, 0.0437909
 2130, 91.0001, 0.9725, 8.95175e-10, 1.37327e-32, 0.0434938
 2280, 96.0001, 0.9725, 2.63279e-13, 5.727e-32, 0.0434918
 2430, 101, 0.9725, 6.58164e-19, 2.29892e-31, 0.0434918
 2580, 106, 0.9725, 1.27292e-27, 8.89613e-31, 0.0434918
 2730, 111, 0.9725, 8.30846e-35, 3.32338e-30, 0.0434918
 2880, 116, 0.9725, 3.00048e-34, 1.20019e-29, 0.0434918
 3030, 121, 0.9725, 1.04885e-33, 4.19539e-29, 0.0434918
 3180, 126, 0.9725, 3.55318e-33, 1.42127e-28, 0.0434918
 3330, 131, 0.9725, 1.16791e-32, 4.67165e-28, 0.0434918
 3480, 136, 0.9725, 3.72883e-32, 1.49153e-27, 0.0434918
 3630, 141, 0.9725, 1.15761e-31, 4.63043e-27, 0.0434918
 3780, 146, 0.9725, 3.49794e-31, 1.39918e-26, 0.0434918
 3930, 151, 0.9725, 1.02977e-30, 4.11909e-26, 0.0434918
 4080, 156, 0.9725, 2.95626e-30, 1.1825e-25, 0.0434918
 4230, 161, 0.9725, 8.28314e-30, 3.31325e-25, 0.0434918
 4380, 166, 0.9725, 2.26703e-29, 9.06813e-25, 0.0434918
 4530, 171, 0.9725, 6.06563e-29, 2.42625e-24, 0.0434918
 4680, 176, 0.9725, 1.58773e-28, 6.35094e-24, 0.0434918
 4830, 181, 0.9725, 4.06891e-28, 1.62756e-23, 0.0434918
 4980, 186, 0.9725, 1.02159e-27, 4.08636e-23, 0.0434918
 5130, 191, 0.9725, 2.51456e-27, 1.00582e-22, 0.0434918
 5280, 196, 0.9725, 6.07169e-27, 2.42867e-22, 0.0434918
 5430, 201, 0.9725, 1.43907e-26, 5.75628e-22, 0.0434918
 5580, 206, 0.9725, 3.34991e-26, 1.33996e-21, 0.0434918
 5730, 211, 0.9725, 7.66311e-26, 3.06524e-21, 0.0434918
 5880, 216, 0.9725, 1.72357e-25, 6.8943e-21, 0.0434918
 6030, 221, 0.9725, 3.81356e-25, 1.52543e-20, 0.0434918
 6180, 226, 0.9725, 8.30467e-25, 3.32187e-20, 0.0434918
 6330, 231, 0.9725, 1.78078e-24, 7.12311e-20, 0.0434918
 6480, 236, 0.9725, 3.76175e-24, 1.5047e-19, 0.0434918
 6630, 241, 0.9725, 7.83166e-24, 3.13266e-19, 0.0434918
 6780, 246, 0.9725, 1.60762e-23, 6.43047e-19, 0.0434918
 6930, 251, 0.9725, 3.25502e-23, 1.30201e-18, 0.0434918
 7080, 256, 0.9725, 6.5033e-23, 2.60132e-18, 0.0434919
 7230, 261, 0.9725, 1.28259e-22, 5.13036e-18, 0.0434918
 7380, 266, 0.9725, 2.49787e-22, 9.99149e-18, 0.0434918
 7530, 271, 0.9725, 4.80544e-22, 1.92218e-17, 0.0434918
 7680, 276, 0.9725, 9.13526e-22, 3.65411e-17, 0.0434918
 7830, 281, 0.9725, 1.71662e-21, 6.86649e-17, 0.0434918
 7980, 286, 0.9725, 3.18955e-21, 1.27582e-16, 0.0434918
 8130, 291, 0.9725, 5.86157e-21, 2.34463e-16, 0.0434918
 8280, 296, 0.9725, 1.06575e-20, 4.263e-16, 0.0434918
 8430, 301, 0.9725, 1.91767e-20, 7.67069e-16, 0.0434918
 8580, 306, 0.9725, 3.41577e-20, 1.36631e-15, 0.0434918
 8730, 311, 0.9725, 6.02436e-20, 2.40975e-15, 0.0434918
 8880, 316, 0.9725, 1.05233e-19, 4.20931e-15, 0.0434918
 9030, 321, 0.9725, 1.82101e-19, 7.28406e-15, 0.0434918
 9180, 326, 0.9725, 3.12249e-19, 1.249e-14, 0.0434919
 9330, 331, 0.9725, 5.30655e-19, 2.12262e-14, 0.0434918
 9480, 336, 0.9725, 8.9401e-19, 3.57604e-14, 0.0434918
 9630, 341, 0.9725, 1.49343e-18, 5.97371e-14, 0.0434918
 9780, 346, 0.9725, 2.47415e-18, 9.89662e-14, 0.0434918
 9930, 351, 0.9725, 4.0659e-18, 1.62636e-13, 0.0434918
 10080, 356, 0.9725, 6.62915e-18, 2.65166e-13, 0.0434919
 10230, 361, 0.9725, 1.07253e-17, 4.29014e-13, 0.0434918
 10380, 366, 0.9725, 1.72225e-17, 6.88898e-13, 0.0434919
 10530, 371, 0.9725, 2.74528e-17, 1.09811e-12, 0.0434918
 10680, 376, 0.9725, 4.34468e-17, 1.73787e-12, 0.0434918
 10830, 381, 0.9725, 6.82781e-17, 2.73112e-12, 0.0434918
 10980, 386, 0.9725, 1.06568e-16, 4.26272e-12, 0.0434918
 11130, 391, 0.9725, 1.65219e-16, 6.60877e-12, 0.0434918
 11280, 396, 0.9725, 2.54477e-16, 1.01791e-11, 0.0434918
 11430, 401, 0.9725, 3.89453e-16, 1.55781e-11, 0.0434918
 11580, 406, 0.9725, 5.92297e-16, 2.36919e-11, 0.0434918
 11730, 411, 0.9725, 8.95287e-16, 3.58115e-11, 0.0434918
 11880, 416, 0.9725, 1.34519e-15, 5.38074e-11, 0.0434918
 12030, 421, 0.9725, 2.00934e-15, 8.03738e-11, 0.0434918
 12180, 426, 0.9725, 2.98424e-15, 1.1937e-10, 0.0434918
 12330, 431, 0.9725, 4.40731e-15, 1.76293e-10, 0.0434918
 12480, 436, 0.9725, 6.47331e-15, 2.58932e-10, 0.0434918
 12630, 441, 0.9725, 9.45672e-15, 3.78269e-10, 0.0434918
 12780, 446, 0.9725, 1.37425e-14, 5.497e-10, 0.0434918
 12930, 451, 0.9725, 1.98678e-14, 7.94712e-10, 0.0434918
 13080, 456, 0.9725, 2.85784e-14, 1.14314e-09, 0.0434918
 13230, 461, 0.9725, 4.09049e-14, 1.6362e-09, 0.0434918
 13380, 466, 0.9725, 5.82648e-14, 2.33059e-09, 0.0434918
 13530, 471, 0.9725, 8.25986e-14, 3.30394e-09, 0.0434918
 13680, 476, 0.9725, 1.16551e-13, 4.66203e-09, 0.0434918
 13830, 481, 0.9725, 1.6371e-13, 6.54841e-09, 0.0434918
 13980, 486, 0.9725, 2.28924e-13, 9.15697e-09, 0.0434919
 14130, 491, 0.9725, 3.18715e-13, 1.27486e-08, 0.0434918
 14280, 496, 0.9725, 4.41819e-13, 1.76728e-08, 0.0434918
 14430, 501, 0.9725, 6.09895e-13, 2.43958e-08, 0.0434918
 14580, 506, 0.9725, 8.38432e-13, 3.35373e-08, 0.0434918
 14730, 511, 0.9725, 1.14794e-12, 4.59175e-08, 0.0434918
 14880, 516, 0.9725, 1.56545e-12, 6.26181e-08, 0.0434918
 15030, 521, 0.9725, 2.1265e-12, 8.50599e-08, 0.0434918
 15180, 526, 0.9725, 2.87757e-12, 1.15103e-07, 0.0434919
 15330, 531, 0.9725, 3.87929e-12, 1.55172e-07, 0.0434918
 15480, 536, 0.9725, 5.21046e-12, 2.08418e-07, 0.0434919
 15630, 541, 0.9725, 6.9731e-12, 2.78924e-07, 0.0434918
 15780, 546, 0.9725, 9.29888e-12, 3.71955e-07, 0.0434918
 15930, 551, 0.9725, 1.23572e-11, 4.94287e-07, 0.0434918
 16080, 556, 0.9725, 1.63651e-11, 6.54603e-07, 0.0434918
 16230, 561, 0.9725, 2.16e-11, 8.64001e-07, 0.0434918
 16380, 566, 0.9725, 2.84154e-11, 1.13662e-06, 0.0434918
 16530, 571, 0.9725, 3.726e-11, 1.4904e-06, 0.0434918
 16680, 576, 0.9725, 4.87019e-11, 1.94808e-06, 0.0434918
 16830, 581, 0.9725, 6.34582e-11, 2.53833e-06, 0.0434919
 16980, 586, 0.9725, 8.24311e-11, 3.29725e-06, 0.0434919
 17130, 591, 0.9725, 1.06753e-10, 4.27012e-06, 0.0434918
 17280, 596, 0.9725, 1.37841e-10, 5.51363e-06, 0.0434918
 17430, 601, 0.9725, 1.77462e-10, 7.09847e-06, 0.0434919
 17580, 606, 0.9725, 2.27816e-10, 9.11263e-06, 0.0434918
 17730, 611, 0.9725, 2.91632e-10, 1.16653e-05, 0.0434919
 17880, 616, 0.9725, 3.7229e-10, 1.48916e-05, 0.0434919
 18030, 621, 0.9725, 4.7396e-10, 1.89584e-05, 0.0434919
 18180, 626, 0.9725, 6.01777e-10, 2.40711e-05, 0.0434919
 18330, 631, 0.9725, 7.62048e-10, 3.04819e-05, 0.0434919
 18480, 636, 0.972499, 9.62502e-10, 3.85001e-05, 0.0434921
 18630, 641, 0.972499, 1.21258e-09, 4.85033e-05, 0.0434921
 18780, 646, 0.972499, 1.5238e-09, 6.09521e-05, 0.0434922
 18930, 651, 0.972499, 1.91018e-09, 7.64071e-05, 0.0434923
 19080, 656, 0.972498, 2.3887e-09, 9.5548e-05, 0.0434924
 19230, 661, 0.972498, 2.97996e-09, 0.000119198, 0.0434925
 19380, 666, 0.972498, 3.70883e-09, 0.000148353, 0.0434927
 19530, 671, 0.972497, 4.60528e-09, 0.000184211, 0.0434928
 19680, 676, 0.972496, 5.70538e-09, 0.000228215, 0.0434931
 19830, 681, 0.972495, 7.05242e-09, 0.000282097, 0.0434934
 19980, 686, 0.972494, 8.69826e-09, 0.00034793, 0.0434938
 20130, 691, 0.972493, 1.07049e-08, 0.000428195, 0.0434943
 20280, 696, 0.972491, 1.31462e-08, 0.000525847, 0.0434948
 20430, 701, 0.972489, 1.61102e-08, 0.00064441, 0.0434956
 20580, 706, 0.972486, 1.97016e-08, 0.000788066, 0.0434964
 20730, 711, 0.972483, 2.40444e-08, 0.000961777, 0.0434973
 20880, 716, 0.972479, 2.92854e-08, 0.00117142, 0.0434986
 21030, 721, 0.972474, 3.5598e-08, 0.00142392, 0.0435
 21180, 726, 0.972468, 4.31869e-08, 0.00172748, 0.0435017
 21330, 731, 0.972461, 5.22928e-08, 0.00209171, 0.0435039
 21480, 736, 0.972452, 6.31985e-08, 0.00252794, 0.0435063
 21630, 741, 0.972442, 7.62359e-08, 0.00304944, 0.0435092
 21780, 746, 0.972429, 9.17936e-08, 0.00367174, 0.0435128
 21930, 751, 0.972414, 1.10326e-07, 0.00441302, 0.0435169
 22080, 756, 0.972396, 1.32362e-07, 0.00529446, 0.043522
 22230, 761, 0.972374, 1.58519e-07, 0.00634076, 0.0435279
 22380, 766, 0.972348, 1.89515e-07, 0.00758061, 0.0435349
 22530, 771, 0.972317, 2.26184e-07, 0.00904735, 0.0435432
 22680, 776, 0.97228, 2.6949e-07, 0.0107796, 0.0435529
 22830, 781, 0.972236, 3.20552e-07, 0.0128221, 0.0435643
 22980, 786, 0.972183, 3.80661e-07, 0.0152265, 0.0435778
 23130, 791, 0.972121, 4.51306e-07, 0.0180523, 0.0435936
 23280, 796, 0.972047, 5.34203e-07, 0.0213681, 0.0436121
 23400, 800, 0.971979, 6.10657e-07, 0.0244263, 0.0436291

File: birch_tga_1step_5_tga.csv
s,C,g/g,1/s,W/g,W/g
Time,Temp,Mass,MLR,MCC,DSC
 12, 21.0003, 0.999993, 6.11641e-07, 0.0000000E+000, 0.121505
 72, 26.0003, 0.99994, 1.2096e-06, 0.0000000E+000, 0.12284
 132, 31.0003, 0.999838, 2.33562e-06, 0.0000000E+000, 0.125352
 192, 36.0003, 0.999641, 4.40258e-06, 0.0000000E+000, 0.12996
 252, 41.0003, 0.999277, 8.09149e-06, 0.0000000E+000, 0.13818
 312, 46.0003, 0.998617, 1.4457e-05, 0.0000000E+000, 0.152354
 372, 51.0003, 0.997459, 2.49637e-05, 3.14171e-38, 0.175724
 432, 56.0003, 0.995506, 4.12227e-05, 1.89903e-37, 0.211832
 492, 61.0003, 0.992381, 6.39249e-05, 1.08771e-36, 0.262109
 552, 66.0002, 0.987756, 9.03173e-05, 5.91761e-36, 0.320212
 612, 71.0002, 0.981658, 0.000110681, 3.06481e-35, 0.364157
 672, 76.0002, 0.974924, 0.000108763, 1.51429e-34, 0.35746
 732, 81.0003, 0.96925, 7.57684e-05, 7.152e-34, 0.280815
 792, 86.0003, 0.966081, 3.09276e-05, 3.23501e-33, 0.178244
 852, 91.0004, 0.965122, 5.53148e-06, 1.40385e-32, 0.120447
 912, 96.0004, 0.965004, 2.79825e-07, 5.85457e-32, 0.108525
 972, 101, 0.965, 2.08746e-09, 2.35014e-31, 0.107895
 1032, 106, 0.965, 8.80702e-13, 9.09433e-31, 0.10789
 1092, 111, 0.965, 5.20756e-18, 3.39743e-30, 0.10789
 1152, 116, 0.965, 5.77881e-26, 1.22694e-29, 0.10789
 1212, 121, 0.965, 1.07229e-33, 4.28889e-29, 0.10789
 1272, 126, 0.965, 3.63237e-33, 1.45295e-28, 0.10789
 1332, 131, 0.965, 1.19394e-32, 4.77578e-28, 0.10789
 1392, 136, 0.965, 3.81195e-32, 1.52478e-27, 0.10789
 1452, 141, 0.965, 1.18341e-31, 4.73365e-27, 0.10789
 1512, 146, 0.965, 3.57592e-31, 1.43037e-26, 0.10789
 1572, 151, 0.965, 1.05273e-30, 4.21092e-26, 0.10789
 1632, 156, 0.965, 3.02217e-30, 1.20887e-25, 0.10789
 1692, 161, 0.965, 8.46783e-30, 3.38713e-25, 0.10789
 1752, 166, 0.965, 2.31759e-29, 9.27034e-25, 0.10789
 1812, 171, 0.965, 6.2009e-29, 2.48036e-24, 0.10789
 1872, 176, 0.965, 1.62314e-28, 6.49258e-24, 0.10789
 1932, 181, 0.965, 4.15966e-28, 1.66386e-23, 0.10789
 1992, 186, 0.965, 1.04438e-27, 4.17751e-23, 0.10789
 2052, 191, 0.965, 2.57065e-27, 1.02826e-22, 0.10789
 2112, 196, 0.965, 6.20712e-27, 2.48285e-22, 0.10789
 2172, 201, 0.965, 1.47117e-26, 5.88469e-22, 0.10789
 2232, 206, 0.965, 3.42464e-26, 1.36986e-21, 0.10789
 2292, 211, 0.965, 7.83407e-26, 3.13363e-21, 0.10789
 2352, 216, 0.965, 1.76203e-25, 7.04811e-21, 0.10789
 2412, 221, 0.965, 3.89865e-25, 1.55946e-20, 0.10789
 2472, 226, 0.965, 8.48997e-25, 3.39599e-20, 0.10789
 2532, 231, 0.965, 1.82051e-24, 7.28205e-20, 0.10789
 2592, 236, 0.965, 3.84569e-24, 1.53828e-19, 0.10789
 2652, 241, 0.965, 8.00642e-24, 3.20257e-19, 0.10789
 2712, 246, 0.965, 1.64349e-23, 6.57397e-19, 0.10789
 2772, 251, 0.965, 3.32766e-23, 1.33106e-18, 0.10789
 2832, 256, 0.965, 6.64844e-23, 2.65938e-18, 0.10789
 2892, 261, 0.965, 1.31121e-22, 5.24485e-18, 0.10789
 2952, 266, 0.965, 2.55362e-22, 1.02145e-17, 0.10789
 3012, 271, 0.965, 4.91269e-22, 1.96508e-17, 0.10789
 3072, 276, 0.965, 9.33916e-22, 3.73567e-17, 0.10789
 3132, 281, 0.965, 1.75494e-21, 7.01975e-17, 0.10789
 3192, 286, 0.965, 3.26074e-21, 1.3043e-16, 0.10789
 3252, 291, 0.965, 5.99241e-21, 2.39696e-16, 0.10789
 3312, 296, 0.965, 1.08954e-20, 4.35816e-16, 0.10789
 3372, 301, 0.965, 1.96048e-20, 7.84193e-16, 0.10789
 3432, 306, 0.965, 3.49202e-20, 1.39681e-15, 0.10789
 3492, 311, 0.965, 6.15885e-20, 2.46354e-15, 0.10789
 3552, 316, 0.965, 1.07582e-19, 4.30328e-15, 0.10789
 3612, 321, 0.965, 1.86167e-19, 7.44667e-15, 0.10789
 3672, 326, 0.965, 3.1922e-19, 1.27688e-14, 0.10789
 3732, 331, 0.965, 5.42502e-19, 2.17001e-14, 0.10789
 3792, 336, 0.965, 9.1397e-19, 3.65588e-14, 0.10789
 3852, 341, 0.965, 1.52677e-18, 6.10709e-14, 0.10789
 3912, 346, 0.965, 2.5294e-18, 1.01176e-13, 0.10789
 3972, 351, 0.965, 4.15669e-18, 1.66267e-13, 0.10789
 4032, 356, 0.965, 6.77717e-18, 2.71087e-13, 0.10789
 4092, 361, 0.965, 1.09648e-17, 4.38593e-13, 0.10789
 4152, 366, 0.965, 1.7607e-17, 7.04281e-13, 0.10789
 4212, 371, 0.965, 2.80658e-17, 1.12263e-12, 0.10789
 4272, 376, 0.965, 4.4417e-17, 1.77668e-12, 0.10789
 4332, 381, 0.965, 6.98028e-17, 2.79211e-12, 0.10789
 4392, 386, 0.965, 1.08948e-16, 4.35791e-12, 0.10789
 4452, 391, 0.965, 1.68909e-16, 6.75636e-12, 0.10789
 4512, 396, 0.965, 2.6016e-16, 1.04064e-11, 0.10789
 4572, 401, 0.965, 3.9815e-16, 1.5926e-11, 0.10789
 4632, 406, 0.965, 6.05525e-16, 2.4221e-11, 0.10789
 4692, 411, 0.965, 9.15282e-16, 3.66113e-11, 0.10789
 4752, 416, 0.965, 1.37523e-15, 5.50091e-11, 0.10789
 4812, 421, 0.965, 2.05422e-15, 8.21688e-11, 0.10789
 4872, 426, 0.965, 3.05089e-15, 1.22036e-10, 0.10789
 4932, 431, 0.965, 4.50575e-15, 1.8023e-10, 0.10789
 4992, 436, 0.965, 6.61789e-15, 2.64716e-10, 0.10789
 5052, 441, 0.965, 9.66794e-15, 3.86718e-10, 0.10789
 5112, 446, 0.965, 1.40495e-14, 5.61978e-10, 0.10789
 5172, 451, 0.965, 2.03116e-14, 8.12462e-10, 0.10789
 5232, 456, 0.965, 2.92167e-14, 1.16867e-09, 0.10789
 5292, 461, 0.965, 4.18186e-14, 1.67274e-09, 0.10789
 5352, 466, 0.965, 5.95663e-14, 2.38265e-09, 0.10789
 5412, 471, 0.965, 8.44436e-14, 3.37774e-09, 0.10789
 5472, 476, 0.965, 1.19154e-13, 4.76617e-09, 0.10789
 5532, 481, 0.965, 1.67367e-13, 6.69468e-09, 0.10789
 5592, 486, 0.965, 2.34038e-13, 9.36152e-09, 0.10789
 5652, 491, 0.965, 3.25834e-13, 1.30334e-08, 0.10789
 5712, 496, 0.965, 4.51689e-13, 1.80676e-08, 0.10789
 5772, 501, 0.965, 6.23519e-13, 2.49408e-08, 0.10789
 5832, 506, 0.965, 8.57162e-13, 3.42865e-08, 0.10789
 5892, 511, 0.965, 1.17358e-12, 4.69433e-08, 0.10789
 5952, 516, 0.965, 1.60042e-12, 6.40169e-08, 0.10789
 6012, 521, 0.965, 2.174e-12, 8.69601e-08, 0.10789
 6072, 526, 0.965, 2.94185e-12, 1.17674e-07, 0.10789
 6132, 531, 0.965, 3.96595e-12, 1.58638e-07, 0.10789
 6192, 536, 0.965, 5.32686e-12, 2.13074e-07, 0.10789
 6252, 541, 0.965, 7.12888e-12, 2.85155e-07, 0.10789
 6312, 546, 0.965, 9.50662e-12, 3.80265e-07, 0.10789
 6372, 551, 0.965, 1.26332e-11, 5.05329e-07, 0.10789
 6432, 556, 0.965, 1.67307e-11, 6.69227e-07, 0.10789
 6492, 561, 0.965, 2.20826e-11, 8.83304e-07, 0.10789
 6552, 566, 0.965, 2.90503e-11, 1.16201e-06, 0.10789
 6612, 571, 0.965, 3.80925e-11, 1.5237e-06, 0.10789
 6672, 576, 0.965, 4.979e-11, 1.9916e-06, 0.10789
 6732, 581, 0.965, 6.4876e-11, 2.59504e-06, 0.10789
 6792, 586, 0.965, 8.42728e-11, 3.37091e-06, 0.10789
 6852, 591, 0.965, 1.09138e-10, 4.36553e-06, 0.10789
 6912, 596, 0.965, 1.4092e-10, 5.63681e-06, 0.10789
 6972, 601, 0.965, 1.81427e-10, 7.25707e-06, 0.10789
 7032, 606, 0.965, 2.32906e-10, 9.31623e-06, 0.10789
 7092, 611, 0.965, 2.98148e-10, 1.19259e-05, 0.10789
 7152, 616, 0.965, 3.80609e-10, 1.52243e-05, 0.10789
 7212, 621, 0.965, 4.8455e-10, 1.9382e-05, 0.10789
 7272, 626, 0.965, 6.15223e-10, 2.46089e-05, 0.107891
 7332, 631, 0.965, 7.79075e-10, 3.1163e-05, 0.107891
 7392, 636, 0.965, 9.84008e-10, 3.93603e-05, 0.107891
 7452, 641, 0.965, 1.23968e-09, 4.9587e-05, 0.107891
 7512, 646, 0.965, 1.55785e-09, 6.23141e-05, 0.107891
 7572, 651, 0.965, 1.95286e-09, 7.81144e-05, 0.107891
 7632, 656, 0.964999, 2.44208e-09, 9.76831e-05, 0.107891
 7692, 661, 0.964999, 3.04655e-09, 0.000121862, 0.107891
 7752, 666, 0.964999, 3.7917e-09, 0.000151668, 0.107891
 7812, 671, 0.964999, 4.70819e-09, 0.000188328, 0.107891
 7872, 676, 0.964998, 5.83288e-09, 0.000233315, 0.107892
 7932, 681, 0.964998, 7.21003e-09, 0.000288401, 0.107892
 7992, 686, 0.964998, 8.89266e-09, 0.000355706, 0.107892
 8052, 691, 0.964997, 1.09441e-08, 0.000437765, 0.107893
 8112, 696, 0.964996, 1.344e-08, 0.000537601, 0.107893
 8172, 701, 0.964995, 1.64704e-08, 0.000658815, 0.107894
 8232, 706, 0.964994, 2.01421e-08, 0.000805684, 0.107895
 8292, 711, 0.964993, 2.4582e-08, 0.000983281, 0.107896
 8352, 716, 0.964991, 2.99403e-08, 0.00119761, 0.107897
 8412, 721, 0.964989, 3.63942e-08, 0.00145577, 0.107898
 8472, 726, 0.964987, 4.4153e-08, 0.00176612, 0.1079
 8532, 731, 0.964984, 5.34629e-08, 0.00213851, 0.107902
 8592, 736, 0.96498, 6.46131e-08, 0.00258452, 0.107905
 8652, 741, 0.964976, 7.79429e-08, 0.00311772, 0.107908
 8712, 746, 0.964971, 9.38498e-08, 0.00375399, 0.107911
 8772, 751, 0.964965, 1.12798e-07, 0.00451193, 0.107915
 8832, 756, 0.964957, 1.3533e-07, 0.0054132, 0.10792
 8892, 761, 0.964949, 1.62077e-07, 0.00648306, 0.107926
 8952, 766, 0.964938, 1.93772e-07, 0.00775089, 0.107933
 9012, 771, 0.964925, 2.3127e-07, 0.00925079, 0.107941
 9072, 776, 0.96491, 2.75558e-07, 0.0110223, 0.107951
 9132, 781, 0.964892, 3.27781e-07, 0.0131112, 0.107962
 9192, 786, 0.96487, 3.8926e-07, 0.0155704, 0.107975
 9252, 791, 0.964845, 4.61523e-07, 0.0184609, 0.107991
 9312, 796, 0.964815, 5.46326e-07, 0.021853, 0.108009
 9360, 800, 0.964787, 6.24547e-07, 0.0249819, 0.108026