Folder: PyroPython/examples/Birch_TGA_Example/Work/Cone_4cd8bha9

Note: examples/Birch_TGA_Example/Work/Cone_4cd8bha9/birch_tga_1step_20_git.txt
FDS6.6.0-131-g88ae75a-HEAD

Note: Readme.md
# PyroPython -- Parameter estimation for FDS pyrolysis models in python

This is simple python script that attempts to indentify pyrolysis parameters for FDS. The program si divided into three parts:

model.py - this file containse the claa Model. Contains functions for reading datafiles, fitness evaluation and running FDS and postprocessing FDS outputs
config.py - provides configuration management
pyropython.py - main executable 

currently all these files need to be in the same directory. TODO: more sensible packaging

As it is now, the program uses scikit optimize [https://github.com/scikit-optimize/scikit-optimize] to optimize the model. Scikit-optimize uses sequential model-based optimization (also known as Bayesian Optimization).  The optimization uses a response surface fitted to the model evaluations to guide the optimization. TODO: add GAs such as shuffled-complex-evolution. (possibly using SPOTPY [http://fb09-pasig.umwelt.uni-giessen.de/spotpy/])

## Prerequisites

-FDS 
-Python 3
-Python packages: Numpy, Scipy, Matplotlib, pandas, yaml, scikit-optimize

Esiest way to install the prerequiaites

1. Install Anaconda (or miniconda) [https://www.anaconda.com/download/#linux]
2. Type: 
```
 conda install pandas scikit-learn
 conda install -c conda-forge scikit-optimize
```
Matplotlib and numpy should already be included in the download of anaconda, if you downloaded miniconda or otherwise are missing packages:
```
 conda install numpy scipy matploltib 
```

## Usage

Test installation by typing:

```
 python pyropython.py -h

```

This should output the following help text

```
usage: pyropython.py [-h] [-v VERBOSITY] [-n NUM_JOBS] [-m MAX_ITER]
                     [-i NUM_INITIAL] [-p NUM_POINTS]
                     fname

positional arguments:
  fname                 Input file name

optional arguments:
  -h, --help            show this help message and exit
  -v VERBOSITY, --verbosity VERBOSITY
                        increase output verbosity
  -n NUM_JOBS, --num_jobs NUM_JOBS
                        number of concurrent jobs
  -m MAX_ITER, --max_iter MAX_ITER
                        maximum number of iterations
  -i NUM_INITIAL, --num_initial NUM_INITIAL
                        number of points in initial design
  -p NUM_POINTS, --num_points NUM_POINTS
                        number of points per iteration
```

## input files

The input files are standard FDS input files with following additions

1. Theres should be a configuration block somewhere in the .fds file. The configuration is given in YAML format [https://en.wikipedia.org/wiki/YAML]. The configuration is placed between #config_start and #config_end blocks as follows 
```
#config_start

... configuration goes here

#config_end
```
2. The Variables that are to be optimized shall be replaced with $var_name (e.g. dollar sign followed by the variable name). For example:
```
#config_start
...
variables:
          VAR1: [ 0.1, 0.5]
...
#config_end

...

&MATL ID="ACME STUFF"
      

File: birch_tga_1step_2_tga.csv
s,C,g/g,1/s,W/g,W/g
Time,Temp,Mass,MLR,MCC,DSC
 30, 21.0001, 0.999987, 4.80453e-07, 6.80585e-16, 0.0484218
 180, 26.0001, 0.999883, 9.4801e-07, 1.90653e-15, 0.0494653
 330, 31.0001, 0.999682, 1.82243e-06, 5.16293e-15, 0.0514158
 480, 36.0001, 0.999301, 3.40628e-06, 1.3538e-14, 0.0549465
 630, 41.0001, 0.998602, 6.16185e-06, 3.44259e-14, 0.0610839
 780, 46.0001, 0.997364, 1.06929e-05, 8.50189e-14, 0.0711637
 930, 51.0001, 0.995278, 1.75185e-05, 2.04189e-13, 0.0863168
 1080, 56.0001, 0.992004, 2.63566e-05, 4.77518e-13, 0.105858
 1230, 61.0001, 0.987387, 3.47561e-05, 1.08869e-12, 0.124218
 1380, 66.0001, 0.981873, 3.72041e-05, 2.42252e-12, 0.128986
 1530, 71.0001, 0.976798, 2.85552e-05, 5.26668e-12, 0.108706
 1680, 76.0001, 0.973677, 1.29016e-05, 1.11982e-11, 0.0728489
 1830, 81.0001, 0.972641, 2.51929e-06, 2.33081e-11, 0.0492118
 1980, 86.0001, 0.972505, 1.31928e-07, 4.75338e-11, 0.0437909
 2130, 91.0001, 0.9725, 8.95177e-10, 9.506e-11, 0.0434938
 2280, 96.0001, 0.9725, 2.67943e-13, 1.86569e-10, 0.0434918
 2430, 101, 0.9725, 8.99138e-15, 3.59629e-10, 0.0434918
 2580, 106, 0.9725, 1.7033e-14, 6.81322e-10, 0.0434918
 2730, 111, 0.9725, 3.1737e-14, 1.26948e-09, 0.0434918
 2880, 116, 0.9725, 5.81962e-14, 2.32785e-09, 0.0434918
 3030, 121, 0.9725, 1.05085e-13, 4.20342e-09, 0.0434918
 3180, 126, 0.9725, 1.86965e-13, 7.47861e-09, 0.0434918
 3330, 131, 0.9725, 3.27935e-13, 1.31174e-08, 0.0434918
 3480, 136, 0.9725, 5.67348e-13, 2.26939e-08, 0.0434918
 3630, 141, 0.9725, 9.68644e-13, 3.87458e-08, 0.0434918
 3780, 146, 0.9725, 1.63281e-12, 6.53124e-08, 0.0434918
 3930, 151, 0.9725, 2.7187e-12, 1.08748e-07, 0.0434918
 4080, 156, 0.9725, 4.47329e-12, 1.78932e-07, 0.0434918
 4230, 161, 0.9725, 7.27631e-12, 2.91052e-07, 0.0434918
 4380, 166, 0.9725, 1.17053e-11, 4.68214e-07, 0.0434918
 4530, 171, 0.9725, 1.86298e-11, 7.45193e-07, 0.0434918
 4680, 176, 0.9725, 2.93454e-11, 1.17381e-06, 0.0434918
 4830, 181, 0.9725, 4.57641e-11, 1.83057e-06, 0.0434918
 4980, 186, 0.9725, 7.06818e-11, 2.82727e-06, 0.0434918
 5130, 191, 0.9725, 1.08149e-10, 4.32597e-06, 0.0434918
 5280, 196, 0.9725, 1.63984e-10, 6.55936e-06, 0.0434918
 5430, 201, 0.9725, 2.46472e-10, 9.85886e-06, 0.0434919
 5580, 206, 0.9725, 3.67315e-10, 1.46926e-05, 0.0434919
 5730, 211, 0.9725, 5.42916e-10, 2.17166e-05, 0.0434919
 5880, 216, 0.9725, 7.96079e-10, 3.18432e-05, 0.043492
 6030, 221, 0.9725, 1.15829e-09, 4.63315e-05, 0.0434921
 6180, 226, 0.972499, 1.67268e-09, 6.69074e-05, 0.0434922
 6330, 231, 0.972499, 2.39798e-09, 9.59192e-05, 0.0434924
 6480, 236, 0.972499, 3.41354e-09, 0.000136542, 0.0434927
 6630, 241, 0.972498, 4.82593e-09, 0.000193037, 0.043493
 6780, 246, 0.972497, 6.77736e-09, 0.000271095, 0.0434935
 6930, 251, 0.972496, 9.45642e-09, 0.000378257, 0.0434941
 7080, 256, 0.972494, 1.31117e-08, 0.000524467, 0.043495
 7230, 261, 0.972492, 1.80689e-08, 0.000722757, 0.0434962
 7380, 266, 0.972489, 2.47527e-08, 0.000990108, 0.0434978
 7530, 271, 0.972484, 3.37132e-08, 0.00134853, 0.0435
 7680, 276, 0.972479, 4.56597e-08, 0.00182639, 0.0435029
 7830, 281, 0.972471, 6.15019e-08, 0.00246008, 0.0435067
 7980, 286, 0.97246, 8.24002e-08, 0.00329601, 0.0435118
 8130, 291, 0.972445, 1.09828e-07, 0.00439313, 0.0435183
 8280, 296, 0.972426, 1.45648e-07, 0.00582593, 0.043527
 8430, 301, 0.972401, 1.92202e-07, 0.00768807, 0.0435381
 8580, 306, 0.972368, 2.52421e-07, 0.0100968, 0.0435525
 8730, 311, 0.972325, 3.2996e-07, 0.0131984, 0.0435709
 8880, 316, 0.972268, 4.29353e-07, 0.0171741, 0.0435946
 9030, 321, 0.972194, 5.56203e-07, 0.0222481, 0.0436248
 9180, 326, 0.972099, 7.17404e-07, 0.0286962, 0.043663
 9330, 331, 0.971977, 9.21403e-07, 0.0368561, 0.0437113
 9480, 336, 0.97182, 1.1785e-06, 0.0471401, 0.0437721
 9630, 341, 0.97162, 1.50123e-06, 0.0600492, 0.0438481
 9780, 346, 0.971366, 1.90473e-06, 0.0761893, 0.0439431
 9930, 351, 0.971044, 2.40728e-06, 0.0962911, 0.0440611
 10080, 356, 0.970638, 3.03077e-06, 0.121231, 0.0442072
 10230, 361, 0.970127, 3.80139e-06, 0.152056, 0.0443874
 10380, 366, 0.969488, 4.75027e-06, 0.190011, 0.0446088
 10530, 371, 0.968691, 5.91426e-06, 0.23657, 0.0448798
 10680, 376, 0.967701, 7.33674e-06, 0.29347, 0.0452101
 10830, 381, 0.966475, 9.06855e-06, 0.362742, 0.0456114
 10980, 386, 0.964962, 1.11689e-05, 0.446754, 0.0460968
 11130, 391, 0.963102, 1.37061e-05, 0.548243, 0.0466818
 11280, 396, 0.960825, 1.67588e-05, 0.67035, 0.0473837
 11430, 401, 0.958045, 2.04163e-05, 0.816651, 0.0482223
 11580, 406, 0.954664, 2.47793e-05, 0.991171, 0.0492198
 11730, 411, 0.95057, 2.99598e-05, 1.19839, 0.0504003
 11880, 416, 0.945629, 3.60806e-05, 1.44322, 0.0517904
 12030, 421, 0.939692, 4.32738e-05, 1.73095, 0.0534179
 12180, 426, 0.932587, 5.16785e-05, 2.06714, 0.0553118
 12330, 431, 0.924121, 6.14359e-05, 2.45743, 0.0575003
 12480, 436, 0.914081, 7.26832e-05, 2.90733, 0.06001
 12630, 441, 0.902235, 8.55445e-05, 3.42178, 0.062863
 12780, 446, 0.888332, 0.000100118, 4.00474, 0.0660735
 12930, 451, 0.872111, 0.000116462, 4.65846, 0.0696446
 13080, 456, 0.853305, 0.000134568, 5.38273, 0.0735624
 13230, 461, 0.831656, 0.000154346, 6.17383, 0.0777904
 13380, 466, 0.806928, 0.000175587, 7.02347, 0.0822626
 13530, 471, 0.778924, 0.000197937, 7.91749, 0.0868766
 13680, 476, 0.747517, 0.000220869, 8.83477, 0.0914865
 13830, 481, 0.71267, 0.000243655, 9.74619, 0.0958984
 13980, 486, 0.674474, 0.000265354, 10.6142, 0.0998677
 14130, 491, 0.633175, 0.000284824, 11.393, 0.103104
 14280, 496, 0.589203, 0.000300757, 12.0303, 0.10528
 14430, 501, 0.543194, 0.000311756, 12.4702, 0.106057
 14580, 506, 0.495992, 0.00031646, 12.6584, 0.105113
 14730, 511, 0.44863, 0.000313711, 12.5484, 0.10219
 14880, 516, 0.40229, 0.000302753, 12.1101, 0.0971433
 15030, 521, 0.358223, 0.000283442, 11.3377, 0.0899911
 15180, 526, 0.317646, 0.000256402, 10.2561, 0.0809554
 15330, 531, 0.281617, 0.000223105, 8.92421, 0.0704742
 15480, 536, 0.250916, 0.000185796, 7.43185, 0.0591771
 15630, 541, 0.225941, 0.000147244, 5.88978, 0.0478157
 15780, 546, 0.20666, 0.000110346, 4.41385, 0.037155
 15930, 551, 0.192626, 7.76437e-05, 3.10575, 0.0278475
 16080, 556, 0.183068, 5.08905e-05, 2.03562, 0.0203219
 16230, 561, 0.177025, 3.07967e-05, 1.23187, 0.0147221
 16380, 566, 0.173511, 1.70384e-05, 0.681534, 0.0109168
 16530, 571, 0.17165, 8.52409e-06, 0.340964, 0.00857651
 16680, 576, 0.170764, 3.80961e-06, 0.152384, 0.00728725
 16830, 581, 0.170388, 1.5006e-06, 0.0600241, 0.00665855
 16980, 586, 0.170248, 5.13237e-07, 0.0205295, 0.00639061
 17130, 591, 0.170203, 1.49922e-07, 0.00599688, 0.00629234
 17280, 596, 0.170191, 3.67274e-08, 0.0014691, 0.00626186
 17430, 601, 0.170188, 7.39539e-09, 0.000295816, 0.00625387
 17580, 606, 0.170188, 1.19718e-09, 4.78873e-05, 0.00625226
 17730, 611, 0.170187, 1.52059e-10, 6.08235e-06, 0.0062519
 17880, 616, 0.170187, 1.47535e-11, 5.90138e-07, 0.00625192
 18030, 621, 0.170187, 1.06184e-12, 4.24734e-08, 0.00625189
 18180, 626, 0.170187, 5.48943e-14, 2.19577e-09, 0.00625198
 18330, 631, 0.170187, 1.96791e-15, 7.87164e-11, 0.00625199
 18480, 636, 0.170187, 4.70722e-17, 1.88289e-12, 0.006252
 18630, 641, 0.170187, 7.20335e-19, 2.88134e-14, 0.00625193
 18780, 646, 0.170187, 6.73566e-21, 2.69426e-16, 0.00625195
 18930, 651, 0.170187, 3.6608e-23, 1.46432e-18, 0.00625196
 19080, 656, 0.170187, 1.09513e-25, 4.38053e-21, 0.00625191
 19230, 661, 0.170187, 1.69952e-28, 6.7981e-24, 0.00625199
 19380, 666, 0.170187, 1.28294e-31, 5.13177e-27, 0.00625194
 19530, 671, 0.170187, 4.39305e-35, 1.75722e-30, 0.00625187
 19680, 676, 0.170187, 0.0000000E+000, 2.53028e-34, 0.00625191
 19830, 681, 0.170187, 0.0000000E+000, 1.41141e-38, 0.00625184
 19980, 686, 0.170187, 0.0000000E+000, 0.0000000E+000, 0.00625193
 20130, 691, 0.170187, 0.0000000E+000, 0.0000000E+000, 0.00625197
 20280, 696, 0.170187, 0.0000000E+000, 0.0000000E+000, 0.00625192
 20430, 701, 0.170187, 0.0000000E+000, 0.0000000E+000, 0.00625196
 20580, 706, 0.170187, 0.0000000E+000, 0.0000000E+000, 0.006252
 20730, 711, 0.170187, 0.0000000E+000, 0.0000000E+000, 0.00625194
 20880, 716, 0.170187, 0.0000000E+000, 0.0000000E+000, 0.00625191
 21030, 721, 0.170187, 0.0000000E+000, 0.0000000E+000, 0.00625193
 21180, 726, 0.170187, 0.0000000E+000, 0.0000000E+000, 0.00625193
 21330, 731, 0.170187, 0.0000000E+000, 0.0000000E+000, 0.0062519
 21480, 736, 0.170187, 0.0000000E+000, 0.0000000E+000, 0.00625181
 21630, 741, 0.170187, 0.0000000E+000, 0.0000000E+000, 0.00625197
 21780, 746, 0.170187, 0.0000000E+000, 0.0000000E+000, 0.00625188
 21930, 751, 0.170187, 0.0000000E+000, 0.0000000E+000, 0.00625191
 22080, 756, 0.170187, 0.0000000E+000, 0.0000000E+000, 0.00625193
 22230, 761, 0.170187, 0.0000000E+000, 0.0000000E+000, 0.00625192
 22380, 766, 0.170187, 0.0000000E+000, 0.0000000E+000, 0.00625197
 22530, 771, 0.170187, 0.0000000E+000, 0.0000000E+000, 0.0062519
 22680, 776, 0.170187, 0.0000000E+000, 0.0000000E+000, 0.00625193
 22830, 781, 0.170187, 0.0000000E+000, 0.0000000E+000, 0.00625188
 22980, 786, 0.170187, 0.0000000E+000, 0.0000000E+000, 0.00625196
 23130, 791, 0.170187, 0.0000000E+000, 0.0000000E+000, 0.00625197
 23280, 796, 0.170187, 0.0000000E+000, 0.0000000E+000, 0.00625196
 23400, 800, 0.170187, 0.0000000E+000, 0.0000000E+000, 0.00625197

File: birch_tga_1step_5_tga.csv
s,C,g/g,1/s,W/g,W/g
Time,Temp,Mass,MLR,MCC,DSC
 12, 21.0003, 0.999993, 6.11641e-07, 6.95759e-16, 0.121505
 72, 26.0003, 0.99994, 1.2096e-06, 1.94904e-15, 0.12284
 132, 31.0003, 0.999838, 2.33562e-06, 5.27806e-15, 0.125352
 192, 36.0003, 0.999641, 4.40258e-06, 1.38399e-14, 0.12996
 252, 41.0003, 0.999277, 8.09149e-06, 3.51936e-14, 0.13818
 312, 46.0003, 0.998617, 1.4457e-05, 8.69151e-14, 0.152354
 372, 51.0003, 0.997459, 2.49637e-05, 2.08744e-13, 0.175724
 432, 56.0003, 0.995506, 4.12227e-05, 4.88169e-13, 0.211832
 492, 61.0003, 0.992381, 6.39249e-05, 1.11297e-12, 0.262109
 552, 66.0002, 0.987756, 9.03173e-05, 2.47654e-12, 0.320212
 612, 71.0002, 0.981658, 0.000110681, 5.38411e-12, 0.364157
 672, 76.0002, 0.974924, 0.000108763, 1.14479e-11, 0.35746
 732, 81.0003, 0.96925, 7.57684e-05, 2.38279e-11, 0.280815
 792, 86.0003, 0.966081, 3.09276e-05, 4.85943e-11, 0.178244
 852, 91.0004, 0.965122, 5.53148e-06, 9.71814e-11, 0.120447
 912, 96.0004, 0.965004, 2.79825e-07, 1.90733e-10, 0.108525
 972, 101, 0.965, 2.08747e-09, 3.67656e-10, 0.107895
 1032, 106, 0.965, 8.98115e-13, 6.96529e-10, 0.10789
 1092, 111, 0.965, 3.24506e-14, 1.29782e-09, 0.10789
 1152, 116, 0.965, 5.94953e-14, 2.37981e-09, 0.10789
 1212, 121, 0.965, 1.07431e-13, 4.29725e-09, 0.10789
 1272, 126, 0.965, 1.91139e-13, 7.64556e-09, 0.10789
 1332, 131, 0.965, 3.35256e-13, 1.34102e-08, 0.10789
 1392, 136, 0.965, 5.80015e-13, 2.32006e-08, 0.10789
 1452, 141, 0.965, 9.9027e-13, 3.96108e-08, 0.10789
 1512, 146, 0.965, 1.66927e-12, 6.67707e-08, 0.10789
 1572, 151, 0.965, 2.7794e-12, 1.11176e-07, 0.10789
 1632, 156, 0.965, 4.57317e-12, 1.82927e-07, 0.10789
 1692, 161, 0.965, 7.43878e-12, 2.97551e-07, 0.10789
 1752, 166, 0.965, 1.19667e-11, 4.78669e-07, 0.10789
 1812, 171, 0.965, 1.90458e-11, 7.61833e-07, 0.10789
 1872, 176, 0.965, 3.00007e-11, 1.20003e-06, 0.10789
 1932, 181, 0.965, 4.67861e-11, 1.87144e-06, 0.10789
 1992, 186, 0.965, 7.22603e-11, 2.89041e-06, 0.10789
 2052, 191, 0.965, 1.10564e-10, 4.42258e-06, 0.10789
 2112, 196, 0.965, 1.67646e-10, 6.70585e-06, 0.10789
 2172, 201, 0.965, 2.51976e-10, 1.0079e-05, 0.10789
 2232, 206, 0.965, 3.75519e-10, 1.50208e-05, 0.10789
 2292, 211, 0.965, 5.55041e-10, 2.22017e-05, 0.107891
 2352, 216, 0.965, 8.1386e-10, 3.25544e-05, 0.107891
 2412, 221, 0.965, 1.18416e-09, 4.73664e-05, 0.107891
 2472, 226, 0.965, 1.71005e-09, 6.84018e-05, 0.107891
 2532, 231, 0.965, 2.45154e-09, 9.80618e-05, 0.107891
 2592, 236, 0.964999, 3.48979e-09, 0.000139592, 0.107891
 2652, 241, 0.964999, 4.93374e-09, 0.000197349, 0.107892
 2712, 246, 0.964999, 6.92877e-09, 0.000277151, 0.107892
 2772, 251, 0.964998, 9.66768e-09, 0.000386707, 0.107893
 2832, 256, 0.964998, 1.34046e-08, 0.000536185, 0.107894
 2892, 261, 0.964997, 1.84727e-08, 0.000738906, 0.107895
 2952, 266, 0.964995, 2.53059e-08, 0.00101223, 0.107896
 3012, 271, 0.964994, 3.44667e-08, 0.00137867, 0.107898
 3072, 276, 0.964991, 4.66805e-08, 0.00186722, 0.107901
 3132, 281, 0.964988, 6.28772e-08, 0.00251509, 0.107905
 3192, 286, 0.964984, 8.42436e-08, 0.00336974, 0.10791
 3252, 291, 0.964978, 1.12287e-07, 0.00449146, 0.107917
 3312, 296, 0.96497, 1.4891e-07, 0.00595642, 0.107925
 3372, 301, 0.96496, 1.9651e-07, 0.00786041, 0.107936
 3432, 306, 0.964946, 2.58086e-07, 0.0103234, 0.10795
 3492, 311, 0.964928, 3.37376e-07, 0.013495, 0.107969
 3552, 316, 0.964905, 4.39022e-07, 0.0175609, 0.107992
 3612, 321, 0.964875, 5.6876e-07, 0.0227504, 0.108022
 3672, 326, 0.964836, 7.33653e-07, 0.0293461, 0.10806
 3732, 331, 0.964786, 9.42358e-07, 0.0376943, 0.108108
 3792, 336, 0.964722, 1.20545e-06, 0.0482179, 0.108168
 3852, 341, 0.96464, 1.53578e-06, 0.0614313, 0.108243
 3912, 346, 0.964536, 1.94895e-06, 0.0779578, 0.108337
 3972, 351, 0.964404, 2.46375e-06, 0.0985499, 0.108454
 4032, 356, 0.964238, 3.10281e-06, 0.124113, 0.108599
 4092, 361, 0.964029, 3.89324e-06, 0.15573, 0.108778
 4152, 366, 0.963767, 4.86738e-06, 0.194695, 0.108998
 4212, 371, 0.96344, 6.06369e-06, 0.242548, 0.109268
 4272, 376, 0.963034, 7.52773e-06, 0.301109, 0.109597
 4332, 381, 0.962531, 9.31322e-06, 0.372529, 0.109997
 4392, 386, 0.961909, 1.14833e-05, 0.459331, 0.110483
 4452, 391, 0.961143, 1.41118e-05, 0.56447, 0.111069
 4512, 396, 0.960204, 1.72846e-05, 0.691384, 0.111776
 4572, 401, 0.959056, 2.11014e-05, 0.844057, 0.112623
 4632, 406, 0.957657, 2.5677e-05, 1.02708, 0.113637
 4692, 411, 0.955957, 3.11428e-05, 1.24571, 0.114844
 4752, 416, 0.953899, 3.76485e-05, 1.50594, 0.116278
 4812, 421, 0.951415, 4.53631e-05, 1.81452, 0.117972
 4872, 426, 0.948427, 5.4476e-05, 2.17904, 0.119967
 4932, 431, 0.944846, 6.51968e-05, 2.60787, 0.122307
 4992, 436, 0.940567, 7.77556e-05, 3.11022, 0.125039
 5052, 441, 0.935473, 9.24002e-05, 3.69601, 0.128212
 5112, 446, 0.929432, 0.000109393, 4.37574, 0.131878
 5172, 451, 0.922293, 0.000129007, 5.16028, 0.136091
 5232, 456, 0.913893, 0.000151513, 6.06052, 0.140902
 5292, 461, 0.904049, 0.000177172, 7.08686, 0.146355
 5352, 466, 0.892564, 0.000206214, 8.24857, 0.152488
 5412, 471, 0.879231, 0.000238822, 9.55289, 0.159323
 5472, 476, 0.863832, 0.000275097, 11.0039, 0.166861
 5532, 481, 0.846146, 0.000315027, 12.6011, 0.175075
 5592, 486, 0.825958, 0.000358446, 14.3379, 0.183895
 5652, 491, 0.803069, 0.000404987, 16.1995, 0.193206
 5712, 496, 0.777309, 0.000454028, 18.1611, 0.202827
 5772, 501, 0.748554, 0.000504649, 20.186, 0.212509
 5832, 506, 0.716744, 0.000555584, 22.2234, 0.221919
 5892, 511, 0.681909, 0.000605192, 24.2077, 0.23064
 5952, 516, 0.644187, 0.000651458, 26.0583, 0.23817
 6012, 521, 0.603848, 0.00069203, 27.6812, 0.243936
 6072, 526, 0.561309, 0.000724311, 28.9724, 0.24732
 6132, 531, 0.51715, 0.000745616, 29.8246, 0.2477
 6192, 536, 0.472106, 0.000753401, 30.1361, 0.244507
 6252, 541, 0.427055, 0.000745559, 29.8224, 0.237301
 6312, 546, 0.382979, 0.000720754, 28.8302, 0.225852
 6372, 551, 0.340909, 0.000678757, 27.1503, 0.210221
 6432, 556, 0.301851, 0.000620715, 24.8286, 0.190816
 6492, 561, 0.266693, 0.000549276, 21.9711, 0.16842
 6552, 566, 0.236126, 0.000468496, 18.7398, 0.144153
 6612, 571, 0.21056, 0.000383477, 15.3391, 0.119373
 6672, 576, 0.190083, 0.000299768, 11.9907, 0.0955139
 6732, 581, 0.174457, 0.000222591, 8.90362, 0.0738903
 6792, 586, 0.163159, 0.000156069, 6.24275, 0.0555015
 6852, 591, 0.155466, 0.000102648, 4.10593, 0.0408928
 6912, 596, 0.150567, 6.28713e-05, 2.51485, 0.0301107
 6972, 601, 0.147671, 3.55739e-05, 1.42296, 0.0227649
 7032, 606, 0.146095, 1.8431e-05, 0.737241, 0.0181795
 7092, 611, 0.145312, 8.65926e-06, 0.346371, 0.0155792
 7152, 616, 0.144961, 3.64992e-06, 0.145997, 0.0142521
 7212, 621, 0.14482, 1.36415e-06, 0.0545661, 0.0136487
 7272, 626, 0.144771, 4.46308e-07, 0.0178523, 0.0134069
 7332, 631, 0.144755, 1.26034e-07, 0.00504135, 0.0133231
 7392, 636, 0.144751, 3.02504e-08, 0.00121002, 0.0132979
 7452, 641, 0.14475, 6.0683e-09, 0.000242732, 0.0132917
 7512, 646, 0.14475, 9.98905e-10, 3.99562e-05, 0.0132904
 7572, 651, 0.14475, 1.32257e-10, 5.29028e-06, 0.0132901
 7632, 656, 0.14475, 1.37814e-11, 5.51255e-07, 0.0132901
 7692, 661, 0.14475, 1.10373e-12, 4.4149e-08, 0.01329
 7752, 666, 0.14475, 6.62138e-14, 2.64855e-09, 0.0132902
 7812, 671, 0.14475, 2.89351e-15, 1.1574e-10, 0.0132901
 7872, 676, 0.14475, 8.9358e-17, 3.57432e-12, 0.0132901
 7932, 681, 0.14475, 1.88723e-18, 7.54894e-14, 0.0132901
 7992, 686, 0.14475, 2.63074e-20, 1.05229e-15, 0.0132901
 8052, 691, 0.14475, 2.32922e-22, 9.31689e-18, 0.0132901
 8112, 696, 0.14475, 1.25664e-24, 5.02655e-20, 0.0132901
 8172, 701, 0.14475, 3.95028e-27, 1.58011e-22, 0.01329
 8232, 706, 0.14475, 6.89436e-30, 2.75774e-25, 0.01329
 8292, 711, 0.14475, 6.34184e-33, 2.53673e-28, 0.0132901
 8352, 716, 0.14475, 2.90715e-36, 1.16286e-31, 0.0132901
 8412, 721, 0.14475, 0.0000000E+000, 2.50119e-35, 0.01329
 8472, 726, 0.14475, 0.0000000E+000, 0.0000000E+000, 0.01329
 8532, 731, 0.14475, 0.0000000E+000, 0.0000000E+000, 0.01329
 8592, 736, 0.14475, 0.0000000E+000, 0.0000000E+000, 0.01329
 8652, 741, 0.14475, 0.0000000E+000, 0.0000000E+000, 0.0132901
 8712, 746, 0.14475, 0.0000000E+000, 0.0000000E+000, 0.01329
 8772, 751, 0.14475, 0.0000000E+000, 0.0000000E+000, 0.01329
 8832, 756, 0.14475, 0.0000000E+000, 0.0000000E+000, 0.0132901
 8892, 761, 0.14475, 0.0000000E+000, 0.0000000E+000, 0.01329
 8952, 766, 0.14475, 0.0000000E+000, 0.0000000E+000, 0.01329
 9012, 771, 0.14475, 0.0000000E+000, 0.0000000E+000, 0.01329
 9072, 776, 0.14475, 0.0000000E+000, 0.0000000E+000, 0.0132899
 9132, 781, 0.14475, 0.0000000E+000, 0.0000000E+000, 0.0132901
 9192, 786, 0.14475, 0.0000000E+000, 0.0000000E+000, 0.0132899
 9252, 791, 0.14475, 0.0000000E+000, 0.0000000E+000, 0.0132901
 9312, 796, 0.14475, 0.0000000E+000, 0.0000000E+000, 0.01329
 9360, 800, 0.14475, 0.0000000E+000, 0.0000000E+000, 0.0132901