Folder: PyroPython/examples/Birch_TGA_Example/Work/Cone_ixa4_k2v

Note: Readme.md
# PyroPython -- Parameter estimation for FDS pyrolysis models in python

This is simple python script that attempts to indentify pyrolysis parameters for FDS. The program si divided into three parts:

model.py - this file containse the claa Model. Contains functions for reading datafiles, fitness evaluation and running FDS and postprocessing FDS outputs
config.py - provides configuration management
pyropython.py - main executable 

currently all these files need to be in the same directory. TODO: more sensible packaging

As it is now, the program uses scikit optimize [https://github.com/scikit-optimize/scikit-optimize] to optimize the model. Scikit-optimize uses sequential model-based optimization (also known as Bayesian Optimization).  The optimization uses a response surface fitted to the model evaluations to guide the optimization. TODO: add GAs such as shuffled-complex-evolution. (possibly using SPOTPY [http://fb09-pasig.umwelt.uni-giessen.de/spotpy/])

## Prerequisites

-FDS 
-Python 3
-Python packages: Numpy, Scipy, Matplotlib, pandas, yaml, scikit-optimize

Esiest way to install the prerequiaites

1. Install Anaconda (or miniconda) [https://www.anaconda.com/download/#linux]
2. Type: 
```
 conda install pandas scikit-learn
 conda install -c conda-forge scikit-optimize
```
Matplotlib and numpy should already be included in the download of anaconda, if you downloaded miniconda or otherwise are missing packages:
```
 conda install numpy scipy matploltib 
```

## Usage

Test installation by typing:

```
 python pyropython.py -h

```

This should output the following help text

```
usage: pyropython.py [-h] [-v VERBOSITY] [-n NUM_JOBS] [-m MAX_ITER]
                     [-i NUM_INITIAL] [-p NUM_POINTS]
                     fname

positional arguments:
  fname                 Input file name

optional arguments:
  -h, --help            show this help message and exit
  -v VERBOSITY, --verbosity VERBOSITY
                        increase output verbosity
  -n NUM_JOBS, --num_jobs NUM_JOBS
                        number of concurrent jobs
  -m MAX_ITER, --max_iter MAX_ITER
                        maximum number of iterations
  -i NUM_INITIAL, --num_initial NUM_INITIAL
                        number of points in initial design
  -p NUM_POINTS, --num_points NUM_POINTS
                        number of points per iteration
```

## input files

The input files are standard FDS input files with following additions

1. Theres should be a configuration block somewhere in the .fds file. The configuration is given in YAML format [https://en.wikipedia.org/wiki/YAML]. The configuration is placed between #config_start and #config_end blocks as follows 
```
#config_start

... configuration goes here

#config_end
```
2. The Variables that are to be optimized shall be replaced with $var_name (e.g. dollar sign followed by the variable name). For example:
```
#config_start
...
variables:
          VAR1: [ 0.1, 0.5]
...
#config_end

...

&MATL ID="ACME STUFF"
      

File: birch_tga_1step_2_tga.csv
s,C,g/g,1/s,W/g,W/g
Time,Temp,Mass,MLR,MCC,DSC
 30, 21.0001, 0.999987, 4.80453e-07, 0.0000000E+000, 0.0484218
 180, 26.0001, 0.999883, 9.4801e-07, 0.0000000E+000, 0.0494653
 330, 31.0001, 0.999682, 1.82243e-06, 0.0000000E+000, 0.0514158
 480, 36.0001, 0.999301, 3.40628e-06, 0.0000000E+000, 0.0549465
 630, 41.0001, 0.998602, 6.16185e-06, 0.0000000E+000, 0.0610839
 780, 46.0001, 0.997364, 1.06929e-05, 0.0000000E+000, 0.0711637
 930, 51.0001, 0.995278, 1.75185e-05, 0.0000000E+000, 0.0863168
 1080, 56.0001, 0.992004, 2.63566e-05, 0.0000000E+000, 0.105858
 1230, 61.0001, 0.987387, 3.47561e-05, 3.31353e-38, 0.124218
 1380, 66.0001, 0.981873, 3.72041e-05, 1.91995e-37, 0.128986
 1530, 71.0001, 0.976798, 2.85552e-05, 1.05711e-36, 0.108706
 1680, 76.0001, 0.973677, 1.29016e-05, 5.54289e-36, 0.0728489
 1830, 81.0001, 0.972641, 2.51929e-06, 2.77351e-35, 0.0492118
 1980, 86.0001, 0.972505, 1.31928e-07, 1.32694e-34, 0.0437909
 2130, 91.0001, 0.9725, 8.95175e-10, 6.08141e-34, 0.0434938
 2280, 96.0001, 0.9725, 2.63279e-13, 2.67453e-33, 0.0434918
 2430, 101, 0.9725, 6.58164e-19, 1.13057e-32, 0.0434918
 2580, 106, 0.9725, 1.27292e-27, 4.60082e-32, 0.0434918
 2730, 111, 0.9725, 4.51286e-36, 1.80512e-31, 0.0434918
 2880, 116, 0.9725, 1.70947e-35, 6.83788e-31, 0.0434918
 3030, 121, 0.9725, 6.2604e-35, 2.50416e-30, 0.0434918
 3180, 126, 0.9725, 2.21932e-34, 8.87726e-30, 0.0434918
 3330, 131, 0.9725, 7.62495e-34, 3.04998e-29, 0.0434918
 3480, 136, 0.9725, 2.54187e-33, 1.01675e-28, 0.0434918
 3630, 141, 0.9725, 8.23084e-33, 3.29234e-28, 0.0434918
 3780, 146, 0.9725, 2.59155e-32, 1.03662e-27, 0.0434918
 3930, 151, 0.9725, 7.94205e-32, 3.17682e-27, 0.0434918
 4080, 156, 0.9725, 2.37122e-31, 9.48487e-27, 0.0434918
 4230, 161, 0.9725, 6.90349e-31, 2.76139e-26, 0.0434918
 4380, 166, 0.9725, 1.96154e-30, 7.84616e-26, 0.0434918
 4530, 171, 0.9725, 5.44396e-30, 2.17759e-25, 0.0434918
 4680, 176, 0.9725, 1.47694e-29, 5.90776e-25, 0.0434918
 4830, 181, 0.9725, 3.91982e-29, 1.56793e-24, 0.0434918
 4980, 186, 0.9725, 1.01844e-28, 4.07378e-24, 0.0434918
 5130, 191, 0.9725, 2.59224e-28, 1.03689e-23, 0.0434918
 5280, 196, 0.9725, 6.4679e-28, 2.58716e-23, 0.0434918
 5430, 201, 0.9725, 1.58299e-27, 6.33195e-23, 0.0434918
 5580, 206, 0.9725, 3.80258e-27, 1.52103e-22, 0.0434918
 5730, 211, 0.9725, 8.97055e-27, 3.58822e-22, 0.0434918
 5880, 216, 0.9725, 2.07941e-26, 8.31762e-22, 0.0434918
 6030, 221, 0.9725, 4.73882e-26, 1.89553e-21, 0.0434918
 6180, 226, 0.9725, 1.06227e-25, 4.24908e-21, 0.0434918
 6330, 231, 0.9725, 2.3434e-25, 9.37358e-21, 0.0434918
 6480, 236, 0.9725, 5.08988e-25, 2.03595e-20, 0.0434918
 6630, 241, 0.9725, 1.08897e-24, 4.3559e-20, 0.0434918
 6780, 246, 0.9725, 2.29597e-24, 9.18387e-20, 0.0434918
 6930, 251, 0.9725, 4.77236e-24, 1.90894e-19, 0.0434918
 7080, 256, 0.9725, 9.78352e-24, 3.91341e-19, 0.0434919
 7230, 261, 0.9725, 1.97888e-23, 7.91554e-19, 0.0434918
 7380, 266, 0.9725, 3.95068e-23, 1.58027e-18, 0.0434918
 7530, 271, 0.9725, 7.78763e-23, 3.11505e-18, 0.0434918
 7680, 276, 0.9725, 1.51625e-22, 6.06501e-18, 0.0434918
 7830, 281, 0.9725, 2.91686e-22, 1.16675e-17, 0.0434918
 7980, 286, 0.9725, 5.54599e-22, 2.2184e-17, 0.0434918
 8130, 291, 0.9725, 1.04255e-21, 4.17018e-17, 0.0434918
 8280, 296, 0.9725, 1.93818e-21, 7.75274e-17, 0.0434918
 8430, 301, 0.9725, 3.56455e-21, 1.42582e-16, 0.0434918
 8580, 306, 0.9725, 6.48702e-21, 2.59481e-16, 0.0434918
 8730, 311, 0.9725, 1.16852e-20, 4.67406e-16, 0.0434918
 8880, 316, 0.9725, 2.08394e-20, 8.33576e-16, 0.0434918
 9030, 321, 0.9725, 3.6805e-20, 1.4722e-15, 0.0434918
 9180, 326, 0.9725, 6.43882e-20, 2.57553e-15, 0.0434918
 9330, 331, 0.9725, 1.11605e-19, 4.46421e-15, 0.0434918
 9480, 336, 0.9725, 1.91709e-19, 7.66835e-15, 0.0434918
 9630, 341, 0.9725, 3.26417e-19, 1.30567e-14, 0.0434918
 9780, 346, 0.9725, 5.51025e-19, 2.2041e-14, 0.0434918
 9930, 351, 0.9725, 9.22416e-19, 3.68966e-14, 0.0434918
 10080, 356, 0.9725, 1.53153e-18, 6.12612e-14, 0.0434918
 10230, 361, 0.9725, 2.52262e-18, 1.00905e-13, 0.0434918
 10380, 366, 0.9725, 4.12275e-18, 1.6491e-13, 0.0434918
 10530, 371, 0.9725, 6.68667e-18, 2.67467e-13, 0.0434918
 10680, 376, 0.9725, 1.07646e-17, 4.30584e-13, 0.0434918
 10830, 381, 0.9725, 1.72038e-17, 6.88153e-13, 0.0434918
 10980, 386, 0.9725, 2.73e-17, 1.092e-12, 0.0434918
 11130, 391, 0.9725, 4.30211e-17, 1.72084e-12, 0.0434918
 11280, 396, 0.9725, 6.7336e-17, 2.69344e-12, 0.0434918
 11430, 401, 0.9725, 1.04695e-16, 4.18782e-12, 0.0434918
 11580, 406, 0.9725, 1.61728e-16, 6.46913e-12, 0.0434918
 11730, 411, 0.9725, 2.48247e-16, 9.92987e-12, 0.0434918
 11880, 416, 0.9725, 3.78687e-16, 1.51475e-11, 0.0434917
 12030, 421, 0.9725, 5.74163e-16, 2.29665e-11, 0.0434918
 12180, 426, 0.9725, 8.65377e-16, 3.46151e-11, 0.0434918
 12330, 431, 0.9725, 1.29672e-15, 5.18686e-11, 0.0434918
 12480, 436, 0.9725, 1.932e-15, 7.728e-11, 0.0434918
 12630, 441, 0.9725, 2.8625e-15, 1.145e-10, 0.0434918
 12780, 446, 0.9725, 4.21802e-15, 1.68721e-10, 0.0434918
 12930, 451, 0.9725, 6.18227e-15, 2.47291e-10, 0.0434918
 13080, 456, 0.9725, 9.01383e-15, 3.60553e-10, 0.0434918
 13230, 461, 0.9725, 1.3075e-14, 5.22999e-10, 0.0434918
 13380, 466, 0.9725, 1.88706e-14, 7.54825e-10, 0.0434918
 13530, 471, 0.9725, 2.71013e-14, 1.08405e-09, 0.0434918
 13680, 476, 0.9725, 3.87344e-14, 1.54937e-09, 0.0434918
 13830, 481, 0.9725, 5.50992e-14, 2.20397e-09, 0.0434918
 13980, 486, 0.9725, 7.80151e-14, 3.1206e-09, 0.0434918
 14130, 491, 0.9725, 1.0996e-13, 4.39841e-09, 0.0434918
 14280, 496, 0.9725, 1.54296e-13, 6.17183e-09, 0.0434917
 14430, 501, 0.9725, 2.15562e-13, 8.62248e-09, 0.0434918
 14580, 506, 0.9725, 2.99866e-13, 1.19946e-08, 0.0434918
 14730, 511, 0.9725, 4.15387e-13, 1.66155e-08, 0.0434918
 14880, 516, 0.9725, 5.73042e-13, 2.29217e-08, 0.0434918
 15030, 521, 0.9725, 7.87335e-13, 3.14934e-08, 0.0434918
 15180, 526, 0.9725, 1.07747e-12, 4.30989e-08, 0.0434918
 15330, 531, 0.9725, 1.46879e-12, 5.87515e-08, 0.0434918
 15480, 536, 0.9725, 1.99457e-12, 7.97827e-08, 0.0434918
 15630, 541, 0.9725, 2.6984e-12, 1.07936e-07, 0.0434918
 15780, 546, 0.9725, 3.63715e-12, 1.45486e-07, 0.0434918
 15930, 551, 0.9725, 4.88476e-12, 1.95391e-07, 0.0434918
 16080, 556, 0.9725, 6.53703e-12, 2.61481e-07, 0.0434918
 16230, 561, 0.9725, 8.71768e-12, 3.48707e-07, 0.0434918
 16380, 566, 0.9725, 1.15859e-11, 4.63438e-07, 0.0434918
 16530, 571, 0.9725, 1.53461e-11, 6.13844e-07, 0.0434918
 16680, 576, 0.9725, 2.02595e-11, 8.10378e-07, 0.0434918
 16830, 581, 0.9725, 2.66591e-11, 1.06636e-06, 0.0434918
 16980, 586, 0.9725, 3.49683e-11, 1.39873e-06, 0.0434918
 17130, 591, 0.9725, 4.57236e-11, 1.82895e-06, 0.0434918
 17280, 596, 0.9725, 5.96028e-11, 2.38411e-06, 0.0434918
 17430, 601, 0.9725, 7.74597e-11, 3.09839e-06, 0.0434918
 17580, 606, 0.9725, 1.00367e-10, 4.01467e-06, 0.0434919
 17730, 611, 0.9725, 1.29668e-10, 5.18671e-06, 0.0434919
 17880, 616, 0.9725, 1.67041e-10, 6.68164e-06, 0.0434919
 18030, 621, 0.9725, 2.14577e-10, 8.58309e-06, 0.0434919
 18180, 626, 0.9725, 2.74875e-10, 1.0995e-05, 0.0434918
 18330, 631, 0.9725, 3.51153e-10, 1.40461e-05, 0.0434918
 18480, 636, 0.9725, 4.47392e-10, 1.78957e-05, 0.0434919
 18630, 641, 0.9725, 5.68498e-10, 2.27399e-05, 0.0434919
 18780, 646, 0.9725, 7.20507e-10, 2.88203e-05, 0.0434919
 18930, 651, 0.972499, 9.10822e-10, 3.64329e-05, 0.043492
 19080, 656, 0.972499, 1.14851e-09, 4.59403e-05, 0.0434921
 19230, 661, 0.972499, 1.44463e-09, 5.7785e-05, 0.0434922
 19380, 666, 0.972499, 1.81266e-09, 7.25064e-05, 0.0434922
 19530, 671, 0.972499, 2.26899e-09, 9.07598e-05, 0.0434923
 19680, 676, 0.972498, 2.8335e-09, 0.00011334, 0.0434924
 19830, 681, 0.972498, 3.53022e-09, 0.000141209, 0.0434926
 19980, 686, 0.972497, 4.38818e-09, 0.000175527, 0.0434928
 20130, 691, 0.972496, 5.44236e-09, 0.000217694, 0.043493
 20280, 696, 0.972495, 6.7348e-09, 0.000269392, 0.0434934
 20430, 701, 0.972494, 8.31597e-09, 0.000332639, 0.0434937
 20580, 706, 0.972493, 1.02463e-08, 0.00040985, 0.0434942
 20730, 711, 0.972491, 1.25978e-08, 0.000503914, 0.0434947
 20880, 716, 0.972489, 1.54568e-08, 0.000618272, 0.0434954
 21030, 721, 0.972487, 1.89256e-08, 0.000757024, 0.0434962
 21180, 726, 0.972483, 2.31259e-08, 0.000925037, 0.0434972
 21330, 731, 0.97248, 2.82021e-08, 0.00112808, 0.0434983
 21480, 736, 0.972475, 3.43249e-08, 0.001373, 0.0434997
 21630, 741, 0.972469, 4.16961e-08, 0.00166784, 0.0435014
 21780, 746, 0.972462, 5.05535e-08, 0.00202214, 0.0435034
 21930, 751, 0.972454, 6.11772e-08, 0.00244709, 0.0435058
 22080, 756, 0.972444, 7.38962e-08, 0.00295585, 0.0435088
 22230, 761, 0.972432, 8.90964e-08, 0.00356386, 0.0435121
 22380, 766, 0.972417, 1.0723e-07, 0.00428919, 0.0435163
 22530, 771, 0.972399, 1.28824e-07, 0.00515297, 0.0435211
 22680, 776, 0.972378, 1.54497e-07, 0.00617987, 0.043527
 22830, 781, 0.972353, 1.84965e-07, 0.0073986, 0.0435339
 22980, 786, 0.972322, 2.21064e-07, 0.00884257, 0.0435421
 23130, 791, 0.972286, 2.63765e-07, 0.0105506, 0.0435517
 23280, 796, 0.972243, 3.14191e-07, 0.0125677, 0.043563
 23400, 800, 0.972202, 3.60963e-07, 0.0144385, 0.0435734

File: birch_tga_1step_5_tga.csv
s,C,g/g,1/s,W/g,W/g
Time,Temp,Mass,MLR,MCC,DSC
 12, 21.0003, 0.999993, 6.11641e-07, 0.0000000E+000, 0.121505
 72, 26.0003, 0.99994, 1.2096e-06, 0.0000000E+000, 0.12284
 132, 31.0003, 0.999838, 2.33562e-06, 0.0000000E+000, 0.125352
 192, 36.0003, 0.999641, 4.40258e-06, 0.0000000E+000, 0.12996
 252, 41.0003, 0.999277, 8.09149e-06, 0.0000000E+000, 0.13818
 312, 46.0003, 0.998617, 1.4457e-05, 0.0000000E+000, 0.152354
 372, 51.0003, 0.997459, 2.49637e-05, 0.0000000E+000, 0.175724
 432, 56.0003, 0.995506, 4.12227e-05, 0.0000000E+000, 0.211832
 492, 61.0003, 0.992381, 6.39249e-05, 3.38722e-38, 0.262109
 552, 66.0002, 0.987756, 9.03173e-05, 1.96264e-37, 0.320212
 612, 71.0002, 0.981658, 0.000110681, 1.08061e-36, 0.364157
 672, 76.0002, 0.974924, 0.000108763, 5.66606e-36, 0.35746
 732, 81.0003, 0.96925, 7.57684e-05, 2.83518e-35, 0.280815
 792, 86.0003, 0.966081, 3.09276e-05, 1.35647e-34, 0.178244
 852, 91.0004, 0.965122, 5.53148e-06, 6.21683e-34, 0.120447
 912, 96.0004, 0.965004, 2.79825e-07, 2.73409e-33, 0.108525
 972, 101, 0.965, 2.08746e-09, 1.15575e-32, 0.107895
 1032, 106, 0.965, 8.80702e-13, 4.70331e-32, 0.10789
 1092, 111, 0.965, 5.20756e-18, 1.84534e-31, 0.10789
 1152, 116, 0.965, 5.77881e-26, 6.99024e-31, 0.10789
 1212, 121, 0.965, 6.40672e-35, 2.55996e-30, 0.10789
 1272, 126, 0.965, 2.26877e-34, 9.07509e-30, 0.10789
 1332, 131, 0.965, 7.79487e-34, 3.11795e-29, 0.10789
 1392, 136, 0.965, 2.59852e-33, 1.03941e-28, 0.10789
 1452, 141, 0.965, 8.4143e-33, 3.36572e-28, 0.10789
 1512, 146, 0.965, 2.64932e-32, 1.05973e-27, 0.10789
 1572, 151, 0.965, 8.1191e-32, 3.24764e-27, 0.10789
 1632, 156, 0.965, 2.42408e-31, 9.69633e-27, 0.10789
 1692, 161, 0.965, 7.0574e-31, 2.82296e-26, 0.10789
 1752, 166, 0.965, 2.00528e-30, 8.02111e-26, 0.10789
 1812, 171, 0.965, 5.56535e-30, 2.22614e-25, 0.10789
 1872, 176, 0.965, 1.50988e-29, 6.0395e-25, 0.10789
 1932, 181, 0.965, 4.00724e-29, 1.60289e-24, 0.10789
 1992, 186, 0.965, 1.04116e-28, 4.16463e-24, 0.10789
 2052, 191, 0.965, 2.65005e-28, 1.06002e-23, 0.10789
 2112, 196, 0.965, 6.61216e-28, 2.64487e-23, 0.10789
 2172, 201, 0.965, 1.6183e-27, 6.47319e-23, 0.10789
 2232, 206, 0.965, 3.88741e-27, 1.55496e-22, 0.10789
 2292, 211, 0.965, 9.17066e-27, 3.66826e-22, 0.10789
 2352, 216, 0.965, 2.12579e-26, 8.50318e-22, 0.10789
 2412, 221, 0.965, 4.84454e-26, 1.93782e-21, 0.10789
 2472, 226, 0.965, 1.08597e-25, 4.34388e-21, 0.10789
 2532, 231, 0.965, 2.39568e-25, 9.58272e-21, 0.10789
 2592, 236, 0.965, 5.20345e-25, 2.08138e-20, 0.10789
 2652, 241, 0.965, 1.11327e-24, 4.45309e-20, 0.10789
 2712, 246, 0.965, 2.3472e-24, 9.3888e-20, 0.10789
 2772, 251, 0.965, 4.87885e-24, 1.95154e-19, 0.10789
 2832, 256, 0.965, 1.00018e-23, 4.00074e-19, 0.10789
 2892, 261, 0.965, 2.02305e-23, 8.09219e-19, 0.10789
 2952, 266, 0.965, 4.03885e-23, 1.61554e-18, 0.10789
 3012, 271, 0.965, 7.96143e-23, 3.18457e-18, 0.10789
 3072, 276, 0.965, 1.55009e-22, 6.20037e-18, 0.10789
 3132, 281, 0.965, 2.98197e-22, 1.19279e-17, 0.10789
 3192, 286, 0.965, 5.66977e-22, 2.26791e-17, 0.10789
 3252, 291, 0.965, 1.06582e-21, 4.26326e-17, 0.10789
 3312, 296, 0.965, 1.98145e-21, 7.92579e-17, 0.10789
 3372, 301, 0.965, 3.64412e-21, 1.45765e-16, 0.10789
 3432, 306, 0.965, 6.63183e-21, 2.65273e-16, 0.10789
 3492, 311, 0.965, 1.1946e-20, 4.7784e-16, 0.10789
 3552, 316, 0.965, 2.13046e-20, 8.52184e-16, 0.10789
 3612, 321, 0.965, 3.76267e-20, 1.50507e-15, 0.10789
 3672, 326, 0.965, 6.58256e-20, 2.63303e-15, 0.10789
 3732, 331, 0.965, 1.14097e-19, 4.56388e-15, 0.10789
 3792, 336, 0.965, 1.95989e-19, 7.83955e-15, 0.10789
 3852, 341, 0.965, 3.33705e-19, 1.33482e-14, 0.10789
 3912, 346, 0.965, 5.63328e-19, 2.25331e-14, 0.10789
 3972, 351, 0.965, 9.43011e-19, 3.77204e-14, 0.10789
 4032, 356, 0.965, 1.56572e-18, 6.2629e-14, 0.10789
 4092, 361, 0.965, 2.57894e-18, 1.03158e-13, 0.10789
 4152, 366, 0.965, 4.2148e-18, 1.68592e-13, 0.10789
 4212, 371, 0.965, 6.83598e-18, 2.73439e-13, 0.10789
 4272, 376, 0.965, 1.1005e-17, 4.40199e-13, 0.10789
 4332, 381, 0.965, 1.7588e-17, 7.0352e-13, 0.10789
 4392, 386, 0.965, 2.79096e-17, 1.11639e-12, 0.10789
 4452, 391, 0.965, 4.39818e-17, 1.75927e-12, 0.10789
 4512, 396, 0.965, 6.88397e-17, 2.75359e-12, 0.10789
 4572, 401, 0.965, 1.07033e-16, 4.28134e-12, 0.10789
 4632, 406, 0.965, 1.6534e-16, 6.6136e-12, 0.10789
 4692, 411, 0.965, 2.53791e-16, 1.01516e-11, 0.10789
 4752, 416, 0.965, 3.87144e-16, 1.54858e-11, 0.10789
 4812, 421, 0.965, 5.86986e-16, 2.34795e-11, 0.10789
 4872, 426, 0.965, 8.84704e-16, 3.53881e-11, 0.10789
 4932, 431, 0.965, 1.32568e-15, 5.3027e-11, 0.10789
 4992, 436, 0.965, 1.97515e-15, 7.9006e-11, 0.10789
 5052, 441, 0.965, 2.92643e-15, 1.17057e-10, 0.10789
 5112, 446, 0.965, 4.31223e-15, 1.72489e-10, 0.10789
 5172, 451, 0.965, 6.32035e-15, 2.52814e-10, 0.10789
 5232, 456, 0.965, 9.21516e-15, 3.68606e-10, 0.10789
 5292, 461, 0.965, 1.3367e-14, 5.3468e-10, 0.10789
 5352, 466, 0.965, 1.92921e-14, 7.71685e-10, 0.10789
 5412, 471, 0.965, 2.77067e-14, 1.10827e-09, 0.10789
 5472, 476, 0.965, 3.95995e-14, 1.58398e-09, 0.10789
 5532, 481, 0.965, 5.633e-14, 2.2532e-09, 0.10789
 5592, 486, 0.965, 7.97577e-14, 3.19031e-09, 0.10789
 5652, 491, 0.965, 1.12416e-13, 4.49665e-09, 0.10789
 5712, 496, 0.965, 1.57742e-13, 6.3097e-09, 0.10789
 5772, 501, 0.965, 2.20377e-13, 8.81509e-09, 0.10789
 5832, 506, 0.965, 3.06564e-13, 1.22626e-08, 0.10789
 5892, 511, 0.965, 4.24666e-13, 1.69867e-08, 0.10789
 5952, 516, 0.965, 5.85843e-13, 2.34337e-08, 0.10789
 6012, 521, 0.965, 8.04923e-13, 3.21969e-08, 0.10789
 6072, 526, 0.965, 1.10154e-12, 4.40617e-08, 0.10789
 6132, 531, 0.965, 1.5016e-12, 6.0064e-08, 0.10789
 6192, 536, 0.965, 2.03913e-12, 8.1565e-08, 0.10789
 6252, 541, 0.965, 2.75868e-12, 1.10347e-07, 0.10789
 6312, 546, 0.965, 3.71841e-12, 1.48736e-07, 0.10789
 6372, 551, 0.965, 4.99389e-12, 1.99756e-07, 0.10789
 6432, 556, 0.965, 6.68307e-12, 2.67323e-07, 0.10789
 6492, 561, 0.965, 8.91244e-12, 3.56497e-07, 0.10789
 6552, 566, 0.965, 1.18448e-11, 4.73791e-07, 0.10789
 6612, 571, 0.965, 1.5689e-11, 6.27558e-07, 0.10789
 6672, 576, 0.965, 2.07121e-11, 8.28483e-07, 0.10789
 6732, 581, 0.965, 2.72547e-11, 1.09019e-06, 0.10789
 6792, 586, 0.965, 3.57495e-11, 1.42998e-06, 0.10789
 6852, 591, 0.965, 4.67452e-11, 1.86981e-06, 0.10789
 6912, 596, 0.965, 6.09344e-11, 2.43738e-06, 0.10789
 6972, 601, 0.965, 7.91903e-11, 3.16761e-06, 0.10789
 7032, 606, 0.965, 1.02609e-10, 4.10437e-06, 0.10789
 7092, 611, 0.965, 1.32565e-10, 5.3026e-06, 0.10789
 7152, 616, 0.965, 1.70773e-10, 6.83093e-06, 0.10789
 7212, 621, 0.965, 2.19372e-10, 8.77486e-06, 0.10789
 7272, 626, 0.965, 2.81016e-10, 1.12407e-05, 0.10789
 7332, 631, 0.965, 3.58999e-10, 1.436e-05, 0.107891
 7392, 636, 0.965, 4.57388e-10, 1.82955e-05, 0.107891
 7452, 641, 0.965, 5.812e-10, 2.3248e-05, 0.10789
 7512, 646, 0.965, 7.36606e-10, 2.94642e-05, 0.107891
 7572, 651, 0.965, 9.31174e-10, 3.72469e-05, 0.107891
 7632, 656, 0.965, 1.17417e-09, 4.69668e-05, 0.107891
 7692, 661, 0.965, 1.47691e-09, 5.90762e-05, 0.107891
 7752, 666, 0.965, 1.85316e-09, 7.41266e-05, 0.107891
 7812, 671, 0.964999, 2.3197e-09, 9.27878e-05, 0.107891
 7872, 676, 0.964999, 2.89682e-09, 0.000115873, 0.107891
 7932, 681, 0.964999, 3.6091e-09, 0.000144364, 0.107891
 7992, 686, 0.964999, 4.48624e-09, 0.00017945, 0.107891
 8052, 691, 0.964998, 5.56398e-09, 0.000222559, 0.107892
 8112, 696, 0.964998, 6.88532e-09, 0.000275413, 0.107892
 8172, 701, 0.964998, 8.50182e-09, 0.000340073, 0.107892
 8232, 706, 0.964997, 1.04753e-08, 0.000419011, 0.107893
 8292, 711, 0.964996, 1.28794e-08, 0.000515177, 0.107893
 8352, 716, 0.964996, 1.58023e-08, 0.000632093, 0.107894
 8412, 721, 0.964994, 1.93487e-08, 0.000773948, 0.107895
 8472, 726, 0.964993, 2.3643e-08, 0.000945719, 0.107896
 8532, 731, 0.964992, 2.88327e-08, 0.00115331, 0.107897
 8592, 736, 0.96499, 3.50926e-08, 0.0014037, 0.107898
 8652, 741, 0.964987, 4.26288e-08, 0.00170515, 0.1079
 8712, 746, 0.964985, 5.16846e-08, 0.00206738, 0.107902
 8772, 751, 0.964981, 6.25464e-08, 0.00250186, 0.107904
 8832, 756, 0.964977, 7.55507e-08, 0.00302203, 0.107907
 8892, 761, 0.964972, 9.10921e-08, 0.00364368, 0.107911
 8952, 766, 0.964966, 1.09633e-07, 0.00438531, 0.107915
 9012, 771, 0.964959, 1.31713e-07, 0.00526852, 0.107919
 9072, 776, 0.96495, 1.57964e-07, 0.00631854, 0.107925
 9132, 781, 0.96494, 1.89119e-07, 0.00756477, 0.107932
 9192, 786, 0.964927, 2.26034e-07, 0.00904138, 0.10794
 9252, 791, 0.964913, 2.69702e-07, 0.0107881, 0.10795
 9312, 796, 0.964895, 3.21274e-07, 0.012851, 0.107961
 9360, 800, 0.964878, 3.69112e-07, 0.0147645, 0.107971

File: birch_tga_1step_10_tga.csv
s,C,g/g,1/s,W/g,W/g
Time,Temp,Mass,MLR,MCC,DSC
 6, 21.0007, 0.999998, 4.369e-07, 0.0000000E+000, 0.236481
 12, 22.0007, 0.999995, 5.01762e-07, 0.0000000E+000, 0.236626
 18, 23.0007, 0.999992, 5.75705e-07, 0.0000000E+000, 0.236791
 24, 24.0007, 0.999988, 6.5992e-07, 0.0000000E+000, 0.236979
 30, 25.0007, 0.999984, 7.55746e-07, 0.0000000E+000, 0.237193
 36, 26.0007, 0.999979, 8.64679e-07, 0.0000000E+000, 0.237436
 42, 27.0007, 0.999973, 9.88398e-07, 0.0000000E+000, 0.237712
 48, 28.0007, 0.999967, 1.12878e-06, 0.0000000E+000, 0.238026
 54, 29.0007, 0.99996, 1.28792e-06, 0.0000000E+000, 0.238381
 60, 30.0007, 0.999951, 1.46815e-06, 0.0000000E+000, 0.238783
 66, 31.0007, 0.999942, 1.67208e-06, 0.0000000E+000, 0.239238
 72, 32.0007, 0.999931, 1.90261e-06, 0.0000000E+000, 0.239752
 78, 33.0007, 0.999919, 2.16297e-06, 0.0000000E+000, 0.240332
 84, 34.0007, 0.999905, 2.45672e-06, 0.0000000E+000, 0.240988
 90, 35.0007, 0.999889, 2.78785e-06, 0.0000000E+000, 0.241726
 96, 36.0007, 0.999872, 3.16074e-06, 0.0000000E+000, 0.242557
 102, 37.0007, 0.999851, 3.58024e-06, 0.0000000E+000, 0.243492
 108, 38.0007, 0.999829, 4.05172e-06, 0.0000000E+000, 0.244543
 114, 39.0007, 0.999803, 4.58107e-06, 0.0000000E+000, 0.245723
 120, 40.0007, 0.999773, 5.17477e-06, 0.0000000E+000, 0.247046
 126, 41.0007, 0.99974, 5.83993e-06, 0.0000000E+000, 0.248528
 132, 42.0007, 0.999703, 6.58435e-06, 0.0000000E+000, 0.250187
 138, 43.0007, 0.999661, 7.41652e-06, 0.0000000E+000, 0.252041