Folder: PyroPython/examples/Birch_TGA_Example/Work/Cone_arvlop4v (part 2)

File: birch_tga_1step_10_tga.csv
s,C,g/g,1/s,W/g,W/g
Time,Temp,Mass,MLR,MCC,DSC
 6, 21.0007, 0.999998, 4.369e-07, 0.0000000E+000, 0.236481
 36, 26.0007, 0.999979, 8.64679e-07, 0.0000000E+000, 0.237436
 66, 31.0007, 0.999942, 1.67208e-06, 0.0000000E+000, 0.239238
 96, 36.0007, 0.999872, 3.16074e-06, 0.0000000E+000, 0.242557
 126, 41.0007, 0.99974, 5.83993e-06, 0.0000000E+000, 0.248528
 156, 46.0007, 0.999501, 1.0536e-05, 0.0000000E+000, 0.258988
 186, 51.0007, 0.999076, 1.85149e-05, 0.0000000E+000, 0.276746
 216, 56.0007, 0.99834, 3.15376e-05, 0.0000000E+000, 0.305701
 246, 61.0006, 0.997112, 5.1621e-05, 0.0000000E+000, 0.350289
 276, 66.0006, 0.995158, 8.00034e-05, 0.0000000E+000, 0.413148
 306, 71.0006, 0.992247, 0.000114589, 0.0000000E+000, 0.489374
 336, 76.0005, 0.988312, 0.000145893, 0.0000000E+000, 0.557452
 366, 81.0005, 0.983712, 0.000155296, 0.0000000E+000, 0.575505
 396, 86.0005, 0.979394, 0.000125686, 0.0000000E+000, 0.505472
 426, 91.0006, 0.976476, 6.69e-05, 0.0000000E+000, 0.370411
 456, 96.0007, 0.975266, 1.88216e-05, 0.0000000E+000, 0.260783
 486, 101.001, 0.975018, 2.02144e-06, 0.0000000E+000, 0.222604
 516, 106.001, 0.975, 5.13397e-08, 0.0000000E+000, 0.218135
 546, 111.001, 0.975, 1.53537e-10, 0.0000000E+000, 0.218019
 576, 116.001, 0.975, 1.97906e-14, 0.0000000E+000, 0.218018
 606, 121.001, 0.975, 2.6181e-20, 0.0000000E+000, 0.218018
 636, 126.001, 0.975, 4.66309e-29, 5.20959e-38, 0.218018
 666, 131.001, 0.975, 0.0000000E+000, 2.38499e-37, 0.218018
 696, 136.001, 0.975, 0.0000000E+000, 1.05201e-36, 0.218018
 726, 141.001, 0.975, 0.0000000E+000, 4.47706e-36, 0.218018
 756, 146.001, 0.975, 0.0000000E+000, 1.8406e-35, 0.218018
 786, 151.001, 0.975, 0.0000000E+000, 7.31896e-35, 0.218018
 816, 156.001, 0.975, 0.0000000E+000, 2.8182e-34, 0.218018
 846, 161.001, 0.975, 2.62994e-38, 1.05198e-33, 0.218018
 876, 166.001, 0.975, 9.52697e-38, 3.81079e-33, 0.218018
 906, 171.001, 0.975, 3.35257e-37, 1.34103e-32, 0.218018
 936, 176.001, 0.975, 1.14719e-36, 4.58875e-32, 0.218018
 966, 181.001, 0.975, 3.82057e-36, 1.52823e-31, 0.218018
 996, 186.001, 0.975, 1.23949e-35, 4.95794e-31, 0.218018
 1026, 191.001, 0.975, 3.92051e-35, 1.56821e-30, 0.218018
 1056, 196.001, 0.975, 1.21e-34, 4.84e-30, 0.218018
 1086, 201.001, 0.975, 3.64674e-34, 1.45869e-29, 0.218018
 1116, 206.001, 0.975, 1.07405e-33, 4.2962e-29, 0.218018
 1146, 211.001, 0.975, 3.09353e-33, 1.23741e-28, 0.218018
 1176, 216.001, 0.975, 8.71953e-33, 3.48781e-28, 0.218018
 1206, 221.001, 0.975, 2.40671e-32, 9.62684e-28, 0.218018
 1236, 226.001, 0.975, 6.5091e-32, 2.60364e-27, 0.218018
 1266, 231.001, 0.975, 1.72602e-31, 6.9041e-27, 0.218018
 1296, 236.001, 0.975, 4.49009e-31, 1.79604e-26, 0.218018
 1326, 241.001, 0.975, 1.14653e-30, 4.58614e-26, 0.218018
 1356, 246.001, 0.975, 2.87526e-30, 1.1501e-25, 0.218018
 1386, 251.001, 0.975, 7.08515e-30, 2.83406e-25, 0.218018
 1416, 256.001, 0.975, 1.7164e-29, 6.86561e-25, 0.218018
 1446, 261.001, 0.975, 4.08974e-29, 1.6359e-24, 0.218018
 1476, 266.001, 0.975, 9.5891e-29, 3.83564e-24, 0.218018
 1506, 271.001, 0.975, 2.21339e-28, 8.85358e-24, 0.218018
 1536, 276.001, 0.975, 5.03181e-28, 2.01273e-23, 0.218018
 1566, 281.001, 0.975, 1.12708e-27, 4.50831e-23, 0.218018
 1596, 286.001, 0.975, 2.4884e-27, 9.95359e-23, 0.218018
 1626, 291.001, 0.975, 5.41737e-27, 2.16695e-22, 0.218018
 1656, 296.001, 0.975, 1.16338e-26, 4.65351e-22, 0.218018
 1686, 301.001, 0.975, 2.46531e-26, 9.86125e-22, 0.218018
 1716, 306.001, 0.975, 5.15693e-26, 2.06277e-21, 0.218018
 1746, 311.001, 0.975, 1.06518e-25, 4.26073e-21, 0.218018
 1776, 316.001, 0.975, 2.17325e-25, 8.693e-21, 0.218018
 1806, 321.001, 0.975, 4.38109e-25, 1.75244e-20, 0.218018
 1836, 326.001, 0.975, 8.72919e-25, 3.49168e-20, 0.218018
 1866, 331.001, 0.975, 1.71953e-24, 6.87812e-20, 0.218018
 1896, 336.001, 0.975, 3.34975e-24, 1.3399e-19, 0.218018
 1926, 341.001, 0.975, 6.45503e-24, 2.58201e-19, 0.218018
 1956, 346.001, 0.975, 1.23079e-23, 4.92316e-19, 0.218018
 1986, 351.001, 0.975, 2.32262e-23, 9.29049e-19, 0.218018
 2016, 356.001, 0.975, 4.339e-23, 1.7356e-18, 0.218018
 2046, 361.001, 0.975, 8.0264e-23, 3.21056e-18, 0.218018
 2076, 366.001, 0.975, 1.47053e-22, 5.8821e-18, 0.218018
 2106, 371.001, 0.975, 2.66896e-22, 1.06758e-17, 0.218018
 2136, 376.001, 0.975, 4.79981e-22, 1.91992e-17, 0.218018
 2166, 381.001, 0.975, 8.55479e-22, 3.42192e-17, 0.218018
 2196, 386.001, 0.975, 1.51143e-21, 6.0457e-17, 0.218018
 2226, 391.001, 0.975, 2.64754e-21, 1.05902e-16, 0.218018
 2256, 396.001, 0.975, 4.59897e-21, 1.83959e-16, 0.218018
 2286, 401.001, 0.975, 7.92357e-21, 3.16943e-16, 0.218018
 2316, 406.001, 0.975, 1.35426e-20, 5.41704e-16, 0.218018
 2346, 411.001, 0.975, 2.29658e-20, 9.18631e-16, 0.218018
 2376, 416.001, 0.975, 3.86484e-20, 1.54594e-15, 0.218018
 2406, 421.001, 0.975, 6.45544e-20, 2.58218e-15, 0.218018
 2436, 426.001, 0.975, 1.07037e-19, 4.28147e-15, 0.218018
 2466, 431.001, 0.975, 1.76206e-19, 7.04826e-15, 0.218018
 2496, 436.001, 0.975, 2.88043e-19, 1.15217e-14, 0.218018
 2526, 441.001, 0.975, 4.67633e-19, 1.87053e-14, 0.218018
 2556, 446.001, 0.975, 7.54094e-19, 3.01638e-14, 0.218018
 2586, 451.001, 0.975, 1.20804e-18, 4.83216e-14, 0.218018
 2616, 456.001, 0.975, 1.92278e-18, 7.69111e-14, 0.218018
 2646, 461.001, 0.975, 3.04108e-18, 1.21643e-13, 0.218018
 2676, 466.001, 0.975, 4.78006e-18, 1.91202e-13, 0.218018
 2706, 471.001, 0.975, 7.46792e-18, 2.98717e-13, 0.218018
 2736, 476.001, 0.975, 1.15979e-17, 4.63916e-13, 0.218018
 2766, 481.001, 0.975, 1.7907e-17, 7.16281e-13, 0.218018
 2796, 486.001, 0.975, 2.74905e-17, 1.09962e-12, 0.218018
 2826, 491.001, 0.975, 4.19668e-17, 1.67867e-12, 0.218018
 2856, 496.001, 0.975, 6.37149e-17, 2.5486e-12, 0.218018
 2886, 501.001, 0.975, 9.62129e-17, 3.84852e-12, 0.218018
 2916, 506.001, 0.975, 1.4452e-16, 5.78081e-12, 0.218018
 2946, 511.001, 0.975, 2.15958e-16, 8.63834e-12, 0.218018
 2976, 516.001, 0.975, 3.21071e-16, 1.28428e-11, 0.218018
 3006, 521.001, 0.975, 4.74967e-16, 1.89987e-11, 0.218018
 3036, 526.001, 0.975, 6.99195e-16, 2.79678e-11, 0.218018
 3066, 531.001, 0.975, 1.02434e-15, 4.09736e-11, 0.218018
 3096, 536.001, 0.975, 1.49362e-15, 5.97449e-11, 0.218018
 3126, 541.001, 0.975, 2.16783e-15, 8.67132e-11, 0.218018
 3156, 546.001, 0.975, 3.13209e-15, 1.25284e-10, 0.218018
 3186, 551.001, 0.975, 4.50511e-15, 1.80204e-10, 0.218018
 3216, 556.001, 0.975, 6.45166e-15, 2.58066e-10, 0.218018
 3246, 561.001, 0.975, 9.19959e-15, 3.67983e-10, 0.218018
 3276, 566.001, 0.975, 1.30626e-14, 5.22503e-10, 0.218018
 3306, 571.001, 0.975, 1.84708e-14, 7.38831e-10, 0.218018
 3336, 576.001, 0.975, 2.60118e-14, 1.04047e-09, 0.218018
 3366, 581.001, 0.975, 3.6485e-14, 1.4594e-09, 0.218018
 3396, 586.001, 0.975, 5.09739e-14, 2.03895e-09, 0.218018
 3426, 591.001, 0.975, 7.09415e-14, 2.83766e-09, 0.218018
 3456, 596.001, 0.975, 9.83563e-14, 3.93425e-09, 0.218018
 3486, 601.001, 0.975, 1.35856e-13, 5.43426e-09, 0.218018
 3516, 606.001, 0.975, 1.86966e-13, 7.47864e-09, 0.218018
 3546, 611.001, 0.975, 2.56375e-13, 1.0255e-08, 0.218018
 3576, 616.001, 0.975, 3.50307e-13, 1.40123e-08, 0.218018
 3606, 621.001, 0.975, 4.76984e-13, 1.90794e-08, 0.218018
 3636, 626.001, 0.975, 6.47245e-13, 2.58898e-08, 0.218018
 3666, 631.001, 0.975, 8.7532e-13, 3.50128e-08, 0.218018
 3696, 636.001, 0.975, 1.17984e-12, 4.71936e-08, 0.218018
 3726, 641.001, 0.975, 1.58512e-12, 6.34047e-08, 0.218018
 3756, 646.001, 0.975, 2.12278e-12, 8.49112e-08, 0.218018
 3786, 651.001, 0.975, 2.83384e-12, 1.13354e-07, 0.218018
 3816, 656.001, 0.975, 3.77134e-12, 1.50853e-07, 0.218018
 3846, 661.001, 0.975, 5.00365e-12, 2.00146e-07, 0.218018
 3876, 666.001, 0.975, 6.61867e-12, 2.64747e-07, 0.218018
 3906, 671.001, 0.975, 8.72907e-12, 3.49163e-07, 0.218018
 3936, 676.001, 0.975, 1.14789e-11, 4.59154e-07, 0.218018
 3966, 681.001, 0.975, 1.50516e-11, 6.02065e-07, 0.218018
 3996, 686.001, 0.975, 1.96807e-11, 7.87228e-07, 0.218018
 4026, 691.001, 0.975, 2.5662e-11, 1.02648e-06, 0.218018
 4056, 696.001, 0.975, 3.33696e-11, 1.33478e-06, 0.218018
 4086, 701.001, 0.975, 4.32753e-11, 1.73101e-06, 0.218018
 4116, 706.001, 0.975, 5.59727e-11, 2.23891e-06, 0.218018
 4146, 711.001, 0.975, 7.22067e-11, 2.88827e-06, 0.218018
 4176, 716.001, 0.975, 9.29096e-11, 3.71638e-06, 0.218018
 4206, 721.001, 0.975, 1.19246e-10, 4.76983e-06, 0.218018
 4236, 726.001, 0.975, 1.52665e-10, 6.1066e-06, 0.218018
 4266, 731.001, 0.975, 1.9497e-10, 7.7988e-06, 0.218019
 4296, 736.001, 0.975, 2.48396e-10, 9.93582e-06, 0.218018
 4326, 741.001, 0.975, 3.15706e-10, 1.26282e-05, 0.218018
 4356, 746.001, 0.975, 4.00313e-10, 1.60125e-05, 0.218019
 4386, 751.001, 0.975, 5.06419e-10, 2.02567e-05, 0.218019
 4416, 756.001, 0.975, 6.39186e-10, 2.55675e-05, 0.218019
 4446, 761.001, 0.975, 8.04948e-10, 3.21979e-05, 0.218019
 4476, 766.001, 0.975, 1.01145e-09, 4.0458e-05, 0.218019
 4506, 771.001, 0.975, 1.26815e-09, 5.0726e-05, 0.218019
 4536, 776.001, 0.975, 1.58658e-09, 6.3463e-05, 0.218019
 4566, 781.001, 0.975, 1.98074e-09, 7.92298e-05, 0.218019
 4596, 786.001, 0.975, 2.46766e-09, 9.87065e-05, 0.218019
 4626, 791.001, 0.975, 3.06794e-09, 0.000122717, 0.218019
 4656, 796.001, 0.974999, 3.80647e-09, 0.000152259, 0.218019
 4680, 800.001, 0.974999, 4.51684e-09, 0.000180674, 0.218019

File: birch_tga_1step_20_tga.csv
s,C,g/g,1/s,W/g,W/g
Time,Temp,Mass,MLR,MCC,DSC
 3, 21.0014, 0.999999, 2.18432e-07, 0.0000000E+000, 0.459601
 18, 26.0014, 0.999995, 4.32468e-07, 0.0000000E+000, 0.460078
 33, 31.0014, 0.999985, 8.36909e-07, 0.0000000E+000, 0.460981
 48, 36.0014, 0.999968, 1.58425e-06, 0.0000000E+000, 0.462648
 63, 41.0014, 0.999935, 2.9349e-06, 0.0000000E+000, 0.465658
 78, 46.0014, 0.999875, 5.32078e-06, 0.0000000E+000, 0.470974
 93, 51.0014, 0.999767, 9.43249e-06, 0.0000000E+000, 0.480128
 108, 56.0014, 0.999578, 1.63183e-05, 0.0000000E+000, 0.495447
 123, 61.0014, 0.999256, 2.74414e-05, 0.0000000E+000, 0.520169
 138, 66.0014, 0.998725, 4.45431e-05, 0.0000000E+000, 0.558128
 153, 71.0013, 0.997882, 6.89739e-05, 0.0000000E+000, 0.612238
 168, 76.0013, 0.996621, 9.99575e-05, 0.0000000E+000, 0.680587
 183, 81.0013, 0.994879, 0.000131523, 0.0000000E+000, 0.749574
 198, 86.0012, 0.992741, 0.000149884, 0.0000000E+000, 0.788117
 213, 91.0013, 0.990538, 0.00013763, 0.0000000E+000, 0.757287
 228, 96.0013, 0.988788, 9.13137e-05, 0.0000000E+000, 0.65002
 243, 101.001, 0.98784, 3.72118e-05, 0.0000000E+000, 0.526279
 258, 106.001, 0.987544, 7.33278e-06, 0.0000000E+000, 0.458275
 273, 111.001, 0.987502, 4.9318e-07, 0.0000000E+000, 0.442749
 288, 116.001, 0.9875, 6.85133e-09, 0.0000000E+000, 0.441646
 303, 121.001, 0.9875, 9.59621e-12, 0.0000000E+000, 0.441631
 318, 126.001, 0.9875, 4.90975e-16, 5.27482e-38, 0.441631
 333, 131.001, 0.9875, 2.20505e-22, 2.41487e-37, 0.441631
 348, 136.001, 0.9875, 1.19e-31, 1.0652e-36, 0.441631
 363, 141.001, 0.9875, 0.0000000E+000, 4.53322e-36, 0.441631
 378, 146.001, 0.9875, 0.0000000E+000, 1.8637e-35, 0.441631
 393, 151.001, 0.9875, 0.0000000E+000, 7.41086e-35, 0.441631
 408, 156.001, 0.9875, 0.0000000E+000, 2.8536e-34, 0.441631
 423, 161.001, 0.9875, 2.66299e-38, 1.0652e-33, 0.441631
 438, 166.001, 0.9875, 9.64676e-38, 3.85871e-33, 0.441631
 453, 171.001, 0.9875, 3.39474e-37, 1.3579e-32, 0.441631
 468, 176.001, 0.9875, 1.16163e-36, 4.6465e-32, 0.441631
 483, 181.001, 0.9875, 3.86867e-36, 1.54747e-31, 0.441631
 498, 186.001, 0.9875, 1.2551e-35, 5.02039e-31, 0.441631
 513, 191.001, 0.9875, 3.96991e-35, 1.58797e-30, 0.441631
 528, 196.001, 0.9875, 1.22525e-34, 4.901e-30, 0.441631
 543, 201.001, 0.9875, 3.69272e-34, 1.47709e-29, 0.441631
 558, 206.001, 0.9875, 1.0876e-33, 4.35039e-29, 0.441631
 573, 211.001, 0.9875, 3.13257e-33, 1.25303e-28, 0.441631
 588, 216.001, 0.9875, 8.82958e-33, 3.53183e-28, 0.441631
 603, 221.001, 0.9875, 2.4371e-32, 9.74839e-28, 0.441631
 618, 226.001, 0.9875, 6.5913e-32, 2.63652e-27, 0.441631
 633, 231.001, 0.9875, 1.74783e-31, 6.99132e-27, 0.441631
 648, 236.001, 0.9875, 4.54683e-31, 1.81873e-26, 0.441631
 663, 241.001, 0.9875, 1.16103e-30, 4.64411e-26, 0.441631
 678, 246.001, 0.9875, 2.91161e-30, 1.16465e-25, 0.441631
 693, 251.001, 0.9875, 7.17476e-30, 2.8699e-25, 0.441631
 708, 256.001, 0.9875, 1.73812e-29, 6.95247e-25, 0.441631
 723, 261.001, 0.9875, 4.14149e-29, 1.6566e-24, 0.441631
 738, 266.001, 0.9875, 9.71046e-29, 3.88419e-24, 0.441631
 753, 271.001, 0.9875, 2.24142e-28, 8.96566e-24, 0.441631
 768, 276.001, 0.9875, 5.09553e-28, 2.03821e-23, 0.441631
 783, 281.001, 0.9875, 1.14135e-27, 4.56541e-23, 0.441631
 798, 286.001, 0.9875, 2.51992e-27, 1.00797e-22, 0.441631
 813, 291.001, 0.9875, 5.48601e-27, 2.19441e-22, 0.441631
 828, 296.001, 0.9875, 1.17812e-26, 4.71249e-22, 0.441631
 843, 301.001, 0.9875, 2.49656e-26, 9.98626e-22, 0.441631
 858, 306.001, 0.9875, 5.22232e-26, 2.08893e-21, 0.441631
 873, 311.001, 0.9875, 1.07869e-25, 4.31476e-21, 0.441631
 888, 316.001, 0.9875, 2.20081e-25, 8.80325e-21, 0.441631
 903, 321.001, 0.9875, 4.43667e-25, 1.77467e-20, 0.441631
 918, 326.001, 0.9875, 8.83994e-25, 3.53598e-20, 0.441631
 933, 331.001, 0.9875, 1.74135e-24, 6.9654e-20, 0.441631
 948, 336.001, 0.9875, 3.39226e-24, 1.3569e-19, 0.441631
 963, 341.001, 0.9875, 6.53698e-24, 2.61479e-19, 0.441631
 978, 346.001, 0.9875, 1.24642e-23, 4.98567e-19, 0.441631
 993, 351.001, 0.9875, 2.35212e-23, 9.40847e-19, 0.441631
 1008, 356.001, 0.9875, 4.39411e-23, 1.75764e-18, 0.441631
 1023, 361.001, 0.9875, 8.12836e-23, 3.25134e-18, 0.441631
 1038, 366.001, 0.9875, 1.48921e-22, 5.95683e-18, 0.441631
 1053, 371.001, 0.9875, 2.70287e-22, 1.08115e-17, 0.441631
 1068, 376.001, 0.9875, 4.8608e-22, 1.94432e-17, 0.441631
 1083, 381.001, 0.9875, 8.66351e-22, 3.46541e-17, 0.441631
 1098, 386.001, 0.9875, 1.53064e-21, 6.12255e-17, 0.441631
 1113, 391.001, 0.9875, 2.6812e-21, 1.07248e-16, 0.441631
 1128, 396.001, 0.9875, 4.65744e-21, 1.86298e-16, 0.441631
 1143, 401.001, 0.9875, 8.02432e-21, 3.20973e-16, 0.441631
 1158, 406.001, 0.9875, 1.37148e-20, 5.48593e-16, 0.441631
 1173, 411.001, 0.9875, 2.32579e-20, 9.30315e-16, 0.441631
 1188, 416.001, 0.9875, 3.914e-20, 1.5656e-15, 0.441631
 1203, 421.001, 0.9875, 6.53756e-20, 2.61503e-15, 0.441631
 1218, 426.001, 0.9875, 1.08399e-19, 4.33595e-15, 0.441631
 1233, 431.001, 0.9875, 1.78449e-19, 7.13795e-15, 0.441631
 1248, 436.001, 0.9875, 2.91709e-19, 1.16684e-14, 0.441631
 1263, 441.001, 0.9875, 4.73584e-19, 1.89434e-14, 0.441631
 1278, 446.001, 0.9875, 7.63693e-19, 3.05477e-14, 0.441631
 1293, 451.001, 0.9875, 1.22342e-18, 4.89367e-14, 0.441631
 1308, 456.001, 0.9875, 1.94726e-18, 7.78903e-14, 0.441631
 1323, 461.001, 0.9875, 3.0798e-18, 1.23192e-13, 0.441631
 1338, 466.001, 0.9875, 4.84093e-18, 1.93637e-13, 0.441631
 1353, 471.001, 0.9875, 7.56302e-18, 3.02521e-13, 0.441631
 1368, 476.001, 0.9875, 1.17456e-17, 4.69824e-13, 0.441631
 1383, 481.001, 0.9875, 1.81351e-17, 7.25404e-13, 0.441631
 1398, 486.001, 0.9875, 2.78407e-17, 1.11363e-12, 0.441631
 1413, 491.001, 0.9875, 4.25015e-17, 1.70006e-12, 0.441631
 1428, 496.001, 0.9875, 6.45266e-17, 2.58107e-12, 0.441631
 1443, 501.001, 0.9875, 9.74388e-17, 3.89755e-12, 0.441631
 1458, 506.001, 0.9875, 1.46362e-16, 5.85447e-12, 0.441631
 1473, 511.001, 0.9875, 2.1871e-16, 8.74842e-12, 0.441631
 1488, 516.001, 0.9875, 3.25163e-16, 1.30065e-11, 0.441631
 1503, 521.001, 0.9875, 4.81021e-16, 1.92408e-11, 0.441631
 1518, 526.001, 0.9875, 7.08107e-16, 2.83243e-11, 0.441631
 1533, 531.001, 0.9875, 1.0374e-15, 4.14959e-11, 0.441631
 1548, 536.001, 0.9875, 1.51266e-15, 6.05065e-11, 0.441631
 1563, 541.001, 0.9875, 2.19547e-15, 8.78187e-11, 0.441631
 1578, 546.001, 0.9875, 3.17203e-15, 1.26881e-10, 0.441631
 1593, 551.001, 0.9875, 4.56255e-15, 1.82502e-10, 0.441631
 1608, 556.001, 0.9875, 6.53393e-15, 2.61357e-10, 0.441631
 1623, 561.001, 0.9875, 9.3169e-15, 3.72676e-10, 0.441631
 1638, 566.001, 0.9875, 1.32292e-14, 5.29166e-10, 0.441631
 1653, 571.001, 0.9875, 1.87063e-14, 7.48254e-10, 0.441631
 1668, 576.001, 0.9875, 2.63435e-14, 1.05374e-09, 0.441631
 1683, 581.001, 0.9875, 3.69503e-14, 1.47801e-09, 0.441631
 1698, 586.001, 0.9875, 5.16241e-14, 2.06496e-09, 0.441631
 1713, 591.001, 0.9875, 7.18465e-14, 2.87386e-09, 0.441631
 1728, 596.001, 0.9875, 9.9611e-14, 3.98444e-09, 0.441631
 1743, 601.001, 0.9875, 1.3759e-13, 5.50359e-09, 0.441631
 1758, 606.001, 0.9875, 1.89351e-13, 7.57406e-09, 0.441631
 1773, 611.001, 0.9875, 2.59647e-13, 1.03859e-08, 0.441631
 1788, 616.001, 0.9875, 3.54777e-13, 1.41911e-08, 0.441631
 1803, 621.001, 0.9875, 4.83071e-13, 1.93228e-08, 0.441631
 1818, 626.001, 0.9875, 6.55505e-13, 2.62202e-08, 0.441631
 1833, 631.001, 0.9875, 8.86492e-13, 3.54597e-08, 0.441631
 1848, 636.001, 0.9875, 1.1949e-12, 4.7796e-08, 0.441631
 1863, 641.001, 0.9875, 1.60535e-12, 6.4214e-08, 0.441631
 1878, 646.001, 0.9875, 2.14987e-12, 8.5995e-08, 0.441631
 1893, 651.001, 0.9875, 2.87001e-12, 1.14801e-07, 0.441631
 1908, 656.001, 0.9875, 3.81948e-12, 1.52779e-07, 0.441631
 1923, 661.001, 0.9875, 5.06752e-12, 2.02701e-07, 0.441631
 1938, 666.001, 0.9875, 6.70317e-12, 2.68127e-07, 0.441631
 1953, 671.001, 0.9875, 8.84051e-12, 3.53621e-07, 0.441631
 1968, 676.001, 0.9875, 1.16254e-11, 4.65017e-07, 0.441631
 1983, 681.001, 0.9875, 1.52438e-11, 6.09752e-07, 0.441631
 1998, 686.001, 0.9875, 1.9932e-11, 7.9728e-07, 0.441631
 2013, 691.001, 0.9875, 2.59897e-11, 1.03959e-06, 0.441631
 2028, 696.001, 0.9875, 3.37957e-11, 1.35183e-06, 0.441631
 2043, 701.001, 0.9875, 4.38279e-11, 1.75312e-06, 0.441631
 2058, 706.001, 0.9875, 5.66876e-11, 2.2675e-06, 0.441631
 2073, 711.001, 0.9875, 7.31289e-11, 2.92516e-06, 0.441631
 2088, 716.001, 0.9875, 9.40963e-11, 3.76385e-06, 0.441631
 2103, 721.001, 0.9875, 1.20769e-10, 4.83075e-06, 0.441631
 2118, 726.001, 0.9875, 1.54615e-10, 6.1846e-06, 0.441631
 2133, 731.001, 0.9875, 1.97461e-10, 7.89842e-06, 0.441631
 2148, 736.001, 0.9875, 2.51569e-10, 1.00627e-05, 0.441631
 2163, 741.001, 0.9875, 3.19739e-10, 1.27896e-05, 0.441631
 2178, 746.001, 0.9875, 4.05427e-10, 1.62171e-05, 0.441631
 2193, 751.001, 0.9875, 5.12888e-10, 2.05155e-05, 0.441631
 2208, 756.001, 0.9875, 6.47352e-10, 2.58941e-05, 0.441631
 2223, 761.001, 0.9875, 8.15232e-10, 3.26093e-05, 0.441631
 2238, 766.001, 0.9875, 1.02437e-09, 4.09749e-05, 0.441631
 2253, 771.001, 0.9875, 1.28435e-09, 5.13741e-05, 0.441631
 2268, 776.001, 0.9875, 1.60685e-09, 6.42739e-05, 0.441631
 2283, 781.001, 0.9875, 2.00605e-09, 8.02421e-05, 0.441631
 2298, 786.001, 0.9875, 2.4992e-09, 9.99678e-05, 0.441631
 2313, 791.001, 0.9875, 3.10714e-09, 0.000124286, 0.441632
 2328, 796.001, 0.9875, 3.85511e-09, 0.000154205, 0.441632
 2340, 800.001, 0.9875, 4.57456e-09, 0.000182983, 0.441632