Folder: PyroPython/examples/Birch_TGA_Example/Best

Note: examples/Birch_TGA_Example/Best/birch_tga_1step_5_git.txt
FDS6.6.0-1706-gf4daa65-master

Note: Readme.md
# PyroPython -- Parameter estimation for FDS pyrolysis models in python

This is simple python script that attempts to indentify pyrolysis parameters for FDS. The program si divided into three parts:

model.py - this file containse the claa Model. Contains functions for reading datafiles, fitness evaluation and running FDS and postprocessing FDS outputs
config.py - provides configuration management
pyropython.py - main executable 

currently all these files need to be in the same directory. TODO: more sensible packaging

As it is now, the program uses scikit optimize [https://github.com/scikit-optimize/scikit-optimize] to optimize the model. Scikit-optimize uses sequential model-based optimization (also known as Bayesian Optimization).  The optimization uses a response surface fitted to the model evaluations to guide the optimization. TODO: add GAs such as shuffled-complex-evolution. (possibly using SPOTPY [http://fb09-pasig.umwelt.uni-giessen.de/spotpy/])

## Prerequisites

-FDS 
-Python 3
-Python packages: Numpy, Scipy, Matplotlib, pandas, yaml, scikit-optimize

Esiest way to install the prerequiaites

1. Install Anaconda (or miniconda) [https://www.anaconda.com/download/#linux]
2. Type: 
```
 conda install pandas scikit-learn
 conda install -c conda-forge scikit-optimize
```
Matplotlib and numpy should already be included in the download of anaconda, if you downloaded miniconda or otherwise are missing packages:
```
 conda install numpy scipy matploltib 
```

## Usage

Test installation by typing:

```
 python pyropython.py -h

```

This should output the following help text

```
usage: pyropython.py [-h] [-v VERBOSITY] [-n NUM_JOBS] [-m MAX_ITER]
                     [-i NUM_INITIAL] [-p NUM_POINTS]
                     fname

positional arguments:
  fname                 Input file name

optional arguments:
  -h, --help            show this help message and exit
  -v VERBOSITY, --verbosity VERBOSITY
                        increase output verbosity
  -n NUM_JOBS, --num_jobs NUM_JOBS
                        number of concurrent jobs
  -m MAX_ITER, --max_iter MAX_ITER
                        maximum number of iterations
  -i NUM_INITIAL, --num_initial NUM_INITIAL
                        number of points in initial design
  -p NUM_POINTS, --num_points NUM_POINTS
                        number of points per iteration
```

## input files

The input files are standard FDS input files with following additions

1. Theres should be a configuration block somewhere in the .fds file. The configuration is given in YAML format [https://en.wikipedia.org/wiki/YAML]. The configuration is placed between #config_start and #config_end blocks as follows 
```
#config_start

... configuration goes here

#config_end
```
2. The Variables that are to be optimized shall be replaced with $var_name (e.g. dollar sign followed by the variable name). For example:
```
#config_start
...
variables:
          VAR1: [ 0.1, 0.5]
...
#config_end

...

&MATL ID="ACME STUFF"
      

File: birch_tga_1step_2_tga.csv
s,C,g/g,1/s,W/g,W/g
Time,Temp,Mass,MLR,MCC,DSC
 30, 21.0001, 0.9725, 8.52729e-14, 3.41092e-09, 0.0434918
 180, 26.0001, 0.9725, 1.83608e-13, 7.34431e-09, 0.0434918
 330, 31.0001, 0.9725, 3.85496e-13, 1.54198e-08, 0.0434918
 480, 36.0001, 0.9725, 7.90184e-13, 3.16073e-08, 0.0434918
 630, 41.0001, 0.9725, 1.58312e-12, 6.33249e-08, 0.0434918
 780, 46.0001, 0.9725, 3.10345e-12, 1.24138e-07, 0.0434918
 930, 51.0001, 0.9725, 5.95877e-12, 2.38351e-07, 0.0434918
 1080, 56.0001, 0.9725, 1.12166e-11, 4.48664e-07, 0.0434918
 1230, 61.0001, 0.9725, 2.07179e-11, 8.28715e-07, 0.0434918
 1380, 66.0001, 0.9725, 3.75813e-11, 1.50325e-06, 0.0434918
 1530, 71.0001, 0.9725, 6.70012e-11, 2.68005e-06, 0.0434918
 1680, 76.0001, 0.9725, 1.1749e-10, 4.69961e-06, 0.0434918
 1830, 81.0001, 0.9725, 2.02784e-10, 8.11136e-06, 0.0434919
 1980, 86.0001, 0.9725, 3.44719e-10, 1.37888e-05, 0.0434919
 2130, 91.0001, 0.9725, 5.77523e-10, 2.31009e-05, 0.0434919
 2280, 96.0001, 0.9725, 9.54119e-10, 3.81648e-05, 0.043492
 2430, 101, 0.9725, 1.55528e-09, 6.22112e-05, 0.0434922
 2580, 106, 0.972499, 2.50275e-09, 0.00010011, 0.0434924
 2730, 111, 0.972499, 3.97784e-09, 0.000159114, 0.0434928
 2880, 116, 0.972498, 6.2475e-09, 0.0002499, 0.0434934
 3030, 121, 0.972497, 9.70043e-09, 0.000388017, 0.0434942
 3180, 126, 0.972495, 1.48966e-08, 0.000595865, 0.0434955
 3330, 131, 0.972492, 2.26347e-08, 0.000905388, 0.0434974
 3480, 136, 0.972488, 3.40424e-08, 0.0013617, 0.0435002
 3630, 141, 0.972482, 5.06973e-08, 0.00202789, 0.0435044
 3780, 146, 0.972472, 7.47861e-08, 0.00299145, 0.0435103
 3930, 151, 0.972459, 1.09314e-07, 0.00437254, 0.0435188
 4080, 156, 0.972439, 1.58373e-07, 0.00633494, 0.0435308
 4230, 161, 0.97241, 2.27498e-07, 0.00909991, 0.0435478
 4380, 166, 0.972369, 3.24103e-07, 0.0129641, 0.0435715
 4530, 171, 0.972311, 4.58056e-07, 0.0183222, 0.0436042
 4680, 176, 0.972229, 6.42385e-07, 0.0256954, 0.0436492
 4830, 181, 0.972115, 8.94169e-07, 0.0357668, 0.0437105
 4980, 186, 0.971957, 1.23564e-06, 0.0494255, 0.0437935
 5130, 191, 0.971739, 1.69551e-06, 0.0678205, 0.043905
 5280, 196, 0.97144, 2.31066e-06, 0.0924265, 0.044054
 5430, 201, 0.971035, 3.12806e-06, 0.125122, 0.0442514
 5580, 206, 0.970489, 4.20714e-06, 0.168286, 0.0445115
 5730, 211, 0.969756, 5.62255e-06, 0.224902, 0.044852
 5880, 216, 0.968781, 7.46731e-06, 0.298692, 0.0452948
 6030, 221, 0.967489, 9.85639e-06, 0.394255, 0.0458669
 6180, 226, 0.965789, 1.29306e-05, 0.517223, 0.0466013
 6330, 231, 0.963567, 1.68606e-05, 0.674425, 0.047538
 6480, 236, 0.960678, 2.1851e-05, 0.874042, 0.0487242
 6630, 241, 0.956947, 2.81436e-05, 1.12574, 0.0502158
 6780, 246, 0.952156, 3.6019e-05, 1.44076, 0.052077
 6930, 251, 0.946046, 4.57968e-05, 1.83187, 0.0543804
 7080, 256, 0.938304, 5.78302e-05, 2.31321, 0.0572047
 7230, 261, 0.928565, 7.24952e-05, 2.89981, 0.0606326
 7380, 266, 0.916405, 9.01701e-05, 3.6068, 0.0647445
 7530, 271, 0.901346, 0.000111202, 4.44807, 0.0696099
 7680, 276, 0.882863, 0.000135855, 5.4342, 0.0752746
 7830, 281, 0.860402, 0.000164241, 6.56964, 0.0817424
 7980, 286, 0.83341, 0.000196222, 7.84888, 0.0889511
 8130, 291, 0.80138, 0.000231294, 9.25177, 0.096744
 8280, 296, 0.763916, 0.000268456, 10.7382, 0.104838
 8430, 301, 0.720818, 0.000306082, 12.2433, 0.112794
 8580, 306, 0.672183, 0.000341839, 13.6735, 0.119998
 8730, 311, 0.61851, 0.00037269, 14.9076, 0.125672
 8880, 316, 0.560799, 0.000395063, 15.8025, 0.128916
 9030, 321, 0.500602, 0.000405239, 16.2096, 0.128818
 9180, 326, 0.440001, 0.000399991, 15.9996, 0.124622
 9330, 331, 0.381474, 0.000377425, 15.097, 0.11594
 9480, 336, 0.327629, 0.000337847, 13.5139, 0.102972
 9630, 341, 0.280822, 0.00028434, 11.3736, 0.0866441
 9780, 346, 0.242739, 0.000222676, 8.90703, 0.0685598
 9930, 351, 0.214054, 0.000160327, 6.41309, 0.0507279
 10080, 356, 0.194303, 0.000104668, 4.18671, 0.0350789
 10230, 361, 0.18205, 6.09748e-05, 2.43899, 0.0229442
 10380, 366, 0.175313, 3.11205e-05, 1.24482, 0.0147284
 10530, 371, 0.172092, 1.36261e-05, 0.545044, 0.00994766
 10680, 376, 0.170782, 4.99675e-06, 0.19987, 0.00760228
 10830, 381, 0.170339, 1.49313e-06, 0.0597251, 0.00665425
 10980, 386, 0.170218, 3.52425e-07, 0.014097, 0.00634665
 11130, 391, 0.170192, 6.34214e-08, 0.00253685, 0.0062689
 11280, 396, 0.170188, 8.36009e-09, 0.000334404, 0.00625413
 11430, 401, 0.170188, 7.71504e-10, 3.08601e-05, 0.00625214
 11580, 406, 0.170187, 4.73643e-11, 1.89457e-06, 0.00625194
 11730, 411, 0.170187, 1.82644e-12, 7.30576e-08, 0.00625192
 11880, 416, 0.170187, 4.14748e-14, 1.65899e-09, 0.00625188
 12030, 421, 0.170187, 5.15916e-16, 2.06366e-11, 0.00625191
 12180, 426, 0.170187, 3.24224e-18, 1.29689e-13, 0.00625188
 12330, 431, 0.170187, 9.40438e-21, 3.76175e-16, 0.00625199
 12480, 436, 0.170187, 1.13834e-23, 4.55337e-19, 0.0062519
 12630, 441, 0.170187, 5.14006e-27, 2.05603e-22, 0.00625193
 12780, 446, 0.170187, 7.64368e-31, 3.05747e-26, 0.00625191
 12930, 451, 0.170187, 3.26025e-35, 1.3041e-30, 0.00625187
 13080, 456, 0.170187, 0.0000000E+000, 1.36899e-35, 0.00625198
 13230, 461, 0.170187, 0.0000000E+000, 0.0000000E+000, 0.00625201
 13380, 466, 0.170187, 0.0000000E+000, 0.0000000E+000, 0.00625192
 13530, 471, 0.170187, 0.0000000E+000, 0.0000000E+000, 0.00625199
 13680, 476, 0.170187, 0.0000000E+000, 0.0000000E+000, 0.00625197
 13830, 481, 0.170187, 0.0000000E+000, 0.0000000E+000, 0.00625192
 13980, 486, 0.170187, 0.0000000E+000, 0.0000000E+000, 0.00625195
 14130, 491, 0.170187, 0.0000000E+000, 0.0000000E+000, 0.00625201
 14280, 496, 0.170187, 0.0000000E+000, 0.0000000E+000, 0.00625194
 14430, 501, 0.170187, 0.0000000E+000, 0.0000000E+000, 0.00625196
 14580, 506, 0.170187, 0.0000000E+000, 0.0000000E+000, 0.00625193
 14730, 511, 0.170187, 0.0000000E+000, 0.0000000E+000, 0.00625193
 14880, 516, 0.170187, 0.0000000E+000, 0.0000000E+000, 0.00625196
 15030, 521, 0.170187, 0.0000000E+000, 0.0000000E+000, 0.0062519
 15180, 526, 0.170187, 0.0000000E+000, 0.0000000E+000, 0.00625194
 15330, 531, 0.170187, 0.0000000E+000, 0.0000000E+000, 0.00625198
 15480, 536, 0.170187, 0.0000000E+000, 0.0000000E+000, 0.00625199
 15630, 541, 0.170187, 0.0000000E+000, 0.0000000E+000, 0.00625195
 15780, 546, 0.170187, 0.0000000E+000, 0.0000000E+000, 0.00625195
 15930, 551, 0.170187, 0.0000000E+000, 0.0000000E+000, 0.00625197
 16080, 556, 0.170187, 0.0000000E+000, 0.0000000E+000, 0.00625198
 16230, 561, 0.170187, 0.0000000E+000, 0.0000000E+000, 0.0062519
 16380, 566, 0.170187, 0.0000000E+000, 0.0000000E+000, 0.00625194
 16530, 571, 0.170187, 0.0000000E+000, 0.0000000E+000, 0.00625189
 16680, 576, 0.170187, 0.0000000E+000, 0.0000000E+000, 0.00625192
 16830, 581, 0.170187, 0.0000000E+000, 0.0000000E+000, 0.00625196
 16980, 586, 0.170187, 0.0000000E+000, 0.0000000E+000, 0.00625193
 17130, 591, 0.170187, 0.0000000E+000, 0.0000000E+000, 0.00625189
 17280, 596, 0.170187, 0.0000000E+000, 0.0000000E+000, 0.00625199
 17430, 601, 0.170187, 0.0000000E+000, 0.0000000E+000, 0.00625189
 17580, 606, 0.170187, 0.0000000E+000, 0.0000000E+000, 0.00625196
 17730, 611, 0.170187, 0.0000000E+000, 0.0000000E+000, 0.00625197
 17880, 616, 0.170187, 0.0000000E+000, 0.0000000E+000, 0.00625194
 18030, 621, 0.170187, 0.0000000E+000, 0.0000000E+000, 0.00625195
 18180, 626, 0.170187, 0.0000000E+000, 0.0000000E+000, 0.00625193
 18330, 631, 0.170187, 0.0000000E+000, 0.0000000E+000, 0.00625201
 18480, 636, 0.170187, 0.0000000E+000, 0.0000000E+000, 0.00625197
 18630, 641, 0.170187, 0.0000000E+000, 0.0000000E+000, 0.00625187
 18780, 646, 0.170187, 0.0000000E+000, 0.0000000E+000, 0.00625194
 18930, 651, 0.170187, 0.0000000E+000, 0.0000000E+000, 0.00625192
 19080, 656, 0.170187, 0.0000000E+000, 0.0000000E+000, 0.00625191
 19230, 661, 0.170187, 0.0000000E+000, 0.0000000E+000, 0.00625193
 19380, 666, 0.170187, 0.0000000E+000, 0.0000000E+000, 0.00625191
 19530, 671, 0.170187, 0.0000000E+000, 0.0000000E+000, 0.00625188
 19680, 676, 0.170187, 0.0000000E+000, 0.0000000E+000, 0.00625196
 19830, 681, 0.170187, 0.0000000E+000, 0.0000000E+000, 0.00625192
 19980, 686, 0.170187, 0.0000000E+000, 0.0000000E+000, 0.00625202
 20130, 691, 0.170187, 0.0000000E+000, 0.0000000E+000, 0.00625197
 20280, 696, 0.170187, 0.0000000E+000, 0.0000000E+000, 0.00625195
 20430, 701, 0.170187, 0.0000000E+000, 0.0000000E+000, 0.00625197
 20580, 706, 0.170187, 0.0000000E+000, 0.0000000E+000, 0.00625191
 20730, 711, 0.170187, 0.0000000E+000, 0.0000000E+000, 0.00625198
 20880, 716, 0.170187, 0.0000000E+000, 0.0000000E+000, 0.00625194
 21030, 721, 0.170187, 0.0000000E+000, 0.0000000E+000, 0.00625199
 21180, 726, 0.170187, 0.0000000E+000, 0.0000000E+000, 0.00625186
 21330, 731, 0.170187, 0.0000000E+000, 0.0000000E+000, 0.00625188
 21480, 736, 0.170187, 0.0000000E+000, 0.0000000E+000, 0.00625193
 21630, 741, 0.170187, 0.0000000E+000, 0.0000000E+000, 0.0062519
 21780, 746, 0.170187, 0.0000000E+000, 0.0000000E+000, 0.00625199
 21930, 751, 0.170187, 0.0000000E+000, 0.0000000E+000, 0.00625197
 22080, 756, 0.170187, 0.0000000E+000, 0.0000000E+000, 0.00625187
 22230, 761, 0.170187, 0.0000000E+000, 0.0000000E+000, 0.00625182
 22380, 766, 0.170187, 0.0000000E+000, 0.0000000E+000, 0.00625201
 22530, 771, 0.170187, 0.0000000E+000, 0.0000000E+000, 0.00625191
 22680, 776, 0.170187, 0.0000000E+000, 0.0000000E+000, 0.00625196
 22830, 781, 0.170187, 0.0000000E+000, 0.0000000E+000, 0.006252
 22980, 786, 0.170187, 0.0000000E+000, 0.0000000E+000, 0.00625183
 23130, 791, 0.170187, 0.0000000E+000, 0.0000000E+000, 0.00625193
 23280, 796, 0.170187, 0.0000000E+000, 0.0000000E+000, 0.00625204
 23400, 800, 0.170187, 0.0000000E+000, 0.0000000E+000, 0.00625193

File: birch_tga_1step_5_tga.csv
s,C,g/g,1/s,W/g,W/g
Time,Temp,Mass,MLR,MCC,DSC
 12, 21.0004, 0.965, 8.71755e-14, 3.48702e-09, 0.10789
 72, 26.0004, 0.965, 1.87705e-13, 7.50818e-09, 0.10789
 132, 31.0004, 0.965, 3.94098e-13, 1.57639e-08, 0.10789
 192, 36.0004, 0.965, 8.07817e-13, 3.23127e-08, 0.10789
 252, 41.0004, 0.965, 1.61845e-12, 6.47381e-08, 0.10789
 312, 46.0004, 0.965, 3.17271e-12, 1.26909e-07, 0.10789
 372, 51.0004, 0.965, 6.09177e-12, 2.43671e-07, 0.10789
 432, 56.0004, 0.965, 1.1467e-11, 4.58679e-07, 0.10789
 492, 61.0004, 0.965, 2.11803e-11, 8.47213e-07, 0.10789
 552, 66.0004, 0.965, 3.84202e-11, 1.53681e-06, 0.10789
 612, 71.0004, 0.965, 6.84969e-11, 2.73988e-06, 0.10789
 672, 76.0004, 0.965, 1.20113e-10, 4.80453e-06, 0.10789
 732, 81.0004, 0.965, 2.07311e-10, 8.29245e-06, 0.10789
 792, 86.0004, 0.965, 3.52416e-10, 1.40966e-05, 0.10789
 852, 91.0004, 0.965, 5.90418e-10, 2.36167e-05, 0.107891
 912, 96.0004, 0.965, 9.75423e-10, 3.90169e-05, 0.107891
 972, 101, 0.965, 1.59001e-09, 6.36003e-05, 0.107891
 1032, 106, 0.965, 2.55863e-09, 0.000102345, 0.107891
 1092, 111, 0.965, 4.06667e-09, 0.000162667, 0.107891
 1152, 116, 0.964999, 6.38703e-09, 0.000255481, 0.107892
 1212, 121, 0.964999, 9.91708e-09, 0.000396683, 0.107893
 1272, 126, 0.964998, 1.52294e-08, 0.000609175, 0.107894
 1332, 131, 0.964997, 2.31403e-08, 0.000925614, 0.107896
 1392, 136, 0.964995, 3.4803e-08, 0.00139212, 0.107899
 1452, 141, 0.964993, 5.18303e-08, 0.00207321, 0.107903
 1512, 146, 0.964989, 7.6458e-08, 0.00305832, 0.107909
 1572, 151, 0.964983, 1.11759e-07, 0.00447034, 0.107917
 1632, 156, 0.964975, 1.61918e-07, 0.00647673, 0.107929
 1692, 161, 0.964963, 2.32595e-07, 0.00930379, 0.107946
 1752, 166, 0.964947, 3.31375e-07, 0.013255, 0.107969
 1812, 171, 0.964923, 4.68354e-07, 0.0187341, 0.108002
 1872, 176, 0.964889, 6.56867e-07, 0.0262747, 0.108046
 1932, 181, 0.964843, 9.14406e-07, 0.0365763, 0.108107
 1992, 186, 0.964778, 1.26375e-06, 0.0505501, 0.108189
 2052, 191, 0.964688, 1.73438e-06, 0.0693751, 0.1083
 2112, 196, 0.964566, 2.36415e-06, 0.0945662, 0.108448
 2172, 201, 0.964401, 3.20145e-06, 0.128058, 0.108643
 2232, 206, 0.964177, 4.30761e-06, 0.172305, 0.108902
 2292, 211, 0.963877, 5.75999e-06, 0.2304, 0.10924
 2352, 216, 0.963477, 7.65545e-06, 0.306218, 0.109681
 2412, 221, 0.962947, 1.01145e-05, 0.404582, 0.110251
 2472, 226, 0.962249, 1.32863e-05, 0.531451, 0.110985
 2532, 231, 0.961335, 1.73535e-05, 0.69414, 0.111924
 2592, 236, 0.960144, 2.25391e-05, 0.901564, 0.113118
 2652, 241, 0.958602, 2.91123e-05, 1.16449, 0.114628
 2712, 246, 0.956616, 3.73956e-05, 1.49582, 0.116526
 2772, 251, 0.954073, 4.77714e-05, 1.91086, 0.118897
 2832, 256, 0.950833, 6.06878e-05, 2.42751, 0.12184
 2892, 261, 0.946729, 7.66622e-05, 3.06649, 0.125469
 2952, 266, 0.94156, 9.62823e-05, 3.85129, 0.129911
 3012, 271, 0.935089, 0.000120201, 4.80804, 0.135306
 3072, 276, 0.927036, 0.000149123, 5.96491, 0.141804
 3132, 281, 0.917079, 0.000183778, 7.35113, 0.149555
 3192, 286, 0.904853, 0.000224882, 8.9953, 0.158699
 3252, 291, 0.889951, 0.000273068, 10.9227, 0.169354
 3312, 296, 0.871933, 0.000328794, 13.1518, 0.181585
 3372, 301, 0.850341, 0.000392216, 15.6886, 0.19538
 3432, 306, 0.824719, 0.000463026, 18.521, 0.210607
 3492, 311, 0.794648, 0.000540252, 21.6101, 0.226968
 3552, 316, 0.759796, 0.000622047, 24.8819, 0.243951
 3612, 321, 0.719968, 0.000705472, 28.2189, 0.26078
 3672, 326, 0.675188, 0.00078635, 31.454, 0.276383
 3732, 331, 0.625765, 0.000859233, 34.3693, 0.289398
 3792, 336, 0.572369, 0.000917598, 36.7039, 0.298229
 3852, 341, 0.516085, 0.000954349, 38.174, 0.301177
 3912, 346, 0.458416, 0.000962699, 38.508, 0.296674
 3972, 351, 0.401236, 0.000937417, 37.4967, 0.283594
 4032, 356, 0.346647, 0.000876275, 35.051, 0.261605
 4092, 361, 0.296762, 0.000781367, 31.2547, 0.231487
 4152, 366, 0.253421, 0.000659788, 26.3915, 0.195273
 4212, 371, 0.217892, 0.000523181, 20.9272, 0.156098
 4272, 376, 0.190654, 0.000385867, 15.4347, 0.117694
 4332, 381, 0.171321, 0.00026183, 10.4732, 0.0836073
 4392, 386, 0.158759, 0.000161434, 6.45737, 0.0563721
 4452, 391, 0.151383, 8.91743e-05, 3.56697, 0.0369607
 4512, 396, 0.147525, 4.34316e-05, 1.73726, 0.0247662
 4572, 401, 0.145758, 1.83167e-05, 0.732667, 0.0181111
 4632, 406, 0.145061, 6.55403e-06, 0.262161, 0.0150093
 4692, 411, 0.14483, 1.94458e-06, 0.0777834, 0.0137989
 4752, 416, 0.144767, 4.66237e-07, 0.0186495, 0.0134118
 4812, 421, 0.144753, 8.77601e-08, 0.0035104, 0.0133129
 4872, 426, 0.14475, 1.2556e-08, 0.00050224, 0.0132934
 4932, 431, 0.14475, 1.31699e-09, 5.26794e-05, 0.0132904
 4992, 436, 0.14475, 9.72728e-11, 3.89091e-06, 0.0132901
 5052, 441, 0.14475, 4.8374e-12, 1.93496e-07, 0.0132901
 5112, 446, 0.14475, 1.54102e-13, 6.16406e-09, 0.0132901
 5172, 451, 0.14475, 2.97562e-15, 1.19025e-10, 0.0132901
 5232, 456, 0.14475, 3.27601e-17, 1.3104e-12, 0.01329
 5292, 461, 0.14475, 1.92186e-19, 7.68744e-15, 0.01329
 5352, 466, 0.14475, 5.57522e-22, 2.23009e-17, 0.01329
 5412, 471, 0.14475, 7.36552e-25, 2.94621e-20, 0.01329
 5472, 476, 0.14475, 4.04744e-28, 1.61897e-23, 0.01329
 5532, 481, 0.14475, 8.37389e-32, 3.34955e-27, 0.0132899
 5592, 486, 0.14475, 5.84733e-36, 2.33893e-31, 0.01329
 5652, 491, 0.14475, 0.0000000E+000, 4.88975e-36, 0.01329
 5712, 496, 0.14475, 0.0000000E+000, 0.0000000E+000, 0.0132901
 5772, 501, 0.14475, 0.0000000E+000, 0.0000000E+000, 0.01329
 5832, 506, 0.14475, 0.0000000E+000, 0.0000000E+000, 0.0132901
 5892, 511, 0.14475, 0.0000000E+000, 0.0000000E+000, 0.01329
 5952, 516, 0.14475, 0.0000000E+000, 0.0000000E+000, 0.01329
 6012, 521, 0.14475, 0.0000000E+000, 0.0000000E+000, 0.0132901
 6072, 526, 0.14475, 0.0000000E+000, 0.0000000E+000, 0.01329
 6132, 531, 0.14475, 0.0000000E+000, 0.0000000E+000, 0.0132901
 6192, 536, 0.14475, 0.0000000E+000, 0.0000000E+000, 0.0132901
 6252, 541, 0.14475, 0.0000000E+000, 0.0000000E+000, 0.01329
 6312, 546, 0.14475, 0.0000000E+000, 0.0000000E+000, 0.0132901
 6372, 551, 0.14475, 0.0000000E+000, 0.0000000E+000, 0.0132901
 6432, 556, 0.14475, 0.0000000E+000, 0.0000000E+000, 0.01329
 6492, 561, 0.14475, 0.0000000E+000, 0.0000000E+000, 0.0132902
 6552, 566, 0.14475, 0.0000000E+000, 0.0000000E+000, 0.01329
 6612, 571, 0.14475, 0.0000000E+000, 0.0000000E+000, 0.01329
 6672, 576, 0.14475, 0.0000000E+000, 0.0000000E+000, 0.01329
 6732, 581, 0.14475, 0.0000000E+000, 0.0000000E+000, 0.0132901
 6792, 586, 0.14475, 0.0000000E+000, 0.0000000E+000, 0.0132901
 6852, 591, 0.14475, 0.0000000E+000, 0.0000000E+000, 0.0132901
 6912, 596, 0.14475, 0.0000000E+000, 0.0000000E+000, 0.01329
 6972, 601, 0.14475, 0.0000000E+000, 0.0000000E+000, 0.01329
 7032, 606, 0.14475, 0.0000000E+000, 0.0000000E+000, 0.0132901
 7092, 611, 0.14475, 0.0000000E+000, 0.0000000E+000, 0.01329
 7152, 616, 0.14475, 0.0000000E+000, 0.0000000E+000, 0.01329
 7212, 621, 0.14475, 0.0000000E+000, 0.0000000E+000, 0.01329
 7272, 626, 0.14475, 0.0000000E+000, 0.0000000E+000, 0.01329
 7332, 631, 0.14475, 0.0000000E+000, 0.0000000E+000, 0.0132901
 7392, 636, 0.14475, 0.0000000E+000, 0.0000000E+000, 0.01329
 7452, 641, 0.14475, 0.0000000E+000, 0.0000000E+000, 0.01329
 7512, 646, 0.14475, 0.0000000E+000, 0.0000000E+000, 0.0132901
 7572, 651, 0.14475, 0.0000000E+000, 0.0000000E+000, 0.0132901
 7632, 656, 0.14475, 0.0000000E+000, 0.0000000E+000, 0.01329
 7692, 661, 0.14475, 0.0000000E+000, 0.0000000E+000, 0.01329
 7752, 666, 0.14475, 0.0000000E+000, 0.0000000E+000, 0.01329
 7812, 671, 0.14475, 0.0000000E+000, 0.0000000E+000, 0.0132901
 7872, 676, 0.14475, 0.0000000E+000, 0.0000000E+000, 0.0132901
 7932, 681, 0.14475, 0.0000000E+000, 0.0000000E+000, 0.0132899
 7992, 686, 0.14475, 0.0000000E+000, 0.0000000E+000, 0.0132899
 8052, 691, 0.14475, 0.0000000E+000, 0.0000000E+000, 0.01329
 8112, 696, 0.14475, 0.0000000E+000, 0.0000000E+000, 0.0132901
 8172, 701, 0.14475, 0.0000000E+000, 0.0000000E+000, 0.01329
 8232, 706, 0.14475, 0.0000000E+000, 0.0000000E+000, 0.0132901
 8292, 711, 0.14475, 0.0000000E+000, 0.0000000E+000, 0.0132901
 8352, 716, 0.14475, 0.0000000E+000, 0.0000000E+000, 0.0132901
 8412, 721, 0.14475, 0.0000000E+000, 0.0000000E+000, 0.0132899
 8472, 726, 0.14475, 0.0000000E+000, 0.0000000E+000, 0.01329
 8532, 731, 0.14475, 0.0000000E+000, 0.0000000E+000, 0.01329
 8592, 736, 0.14475, 0.0000000E+000, 0.0000000E+000, 0.0132901
 8652, 741, 0.14475, 0.0000000E+000, 0.0000000E+000, 0.01329
 8712, 746, 0.14475, 0.0000000E+000, 0.0000000E+000, 0.0132901
 8772, 751, 0.14475, 0.0000000E+000, 0.0000000E+000, 0.01329
 8832, 756, 0.14475, 0.0000000E+000, 0.0000000E+000, 0.01329
 8892, 761, 0.14475, 0.0000000E+000, 0.0000000E+000, 0.0132899
 8952, 766, 0.14475, 0.0000000E+000, 0.0000000E+000, 0.01329
 9012, 771, 0.14475, 0.0000000E+000, 0.0000000E+000, 0.01329
 9072, 776, 0.14475, 0.0000000E+000, 0.0000000E+000, 0.0132902
 9132, 781, 0.14475, 0.0000000E+000, 0.0000000E+000, 0.01329
 9192, 786, 0.14475, 0.0000000E+000, 0.0000000E+000, 0.01329
 9252, 791, 0.14475, 0.0000000E+000, 0.0000000E+000, 0.01329
 9312, 796, 0.14475, 0.0000000E+000, 0.0000000E+000, 0.0132902
 9360, 800, 0.14475, 0.0000000E+000, 0.0000000E+000, 0.01329