Folder: PyroPython/examples/Birch_TGA_Example/Best (part 2)

File: birch_tga_1step_10_tga.csv
s,C,g/g,1/s,W/g,W/g
Time,Temp,Mass,MLR,MCC,DSC
 6, 21.0007, 0.975, 8.65181e-14, 3.46072e-09, 0.218018
 36, 26.0007, 0.975, 1.86289e-13, 7.45158e-09, 0.218018
 66, 31.0007, 0.975, 3.91128e-13, 1.56451e-08, 0.218018
 96, 36.0007, 0.975, 8.01731e-13, 3.20692e-08, 0.218018
 126, 41.0007, 0.975, 1.60626e-12, 6.42505e-08, 0.218018
 156, 46.0007, 0.975, 3.14882e-12, 1.25953e-07, 0.218018
 186, 51.0007, 0.975, 6.04591e-12, 2.41836e-07, 0.218018
 216, 56.0007, 0.975, 1.13807e-11, 4.55227e-07, 0.218018
 246, 61.0007, 0.975, 2.1021e-11, 8.40838e-07, 0.218018
 276, 66.0007, 0.975, 3.81311e-11, 1.52525e-06, 0.218018
 306, 71.0007, 0.975, 6.79817e-11, 2.71927e-06, 0.218018
 336, 76.0007, 0.975, 1.1921e-10, 4.7684e-06, 0.218018
 366, 81.0007, 0.975, 2.05753e-10, 8.2301e-06, 0.218018
 396, 86.0007, 0.975, 3.49767e-10, 1.39907e-05, 0.218019
 426, 91.0007, 0.975, 5.85981e-10, 2.34392e-05, 0.218019
 456, 96.0007, 0.975, 9.68094e-10, 3.87237e-05, 0.218019
 486, 101.001, 0.975, 1.57806e-09, 6.31225e-05, 0.218019
 516, 106.001, 0.975, 2.53942e-09, 0.000101577, 0.218019
 546, 111.001, 0.975, 4.03613e-09, 0.000161445, 0.218019
 576, 116.001, 0.975, 6.33906e-09, 0.000253563, 0.21802
 606, 121.001, 0.974999, 9.84263e-09, 0.000393705, 0.218021
 636, 126.001, 0.974999, 1.51151e-08, 0.000604602, 0.218022
 666, 131.001, 0.974998, 2.29667e-08, 0.000918667, 0.218024
 696, 136.001, 0.974998, 3.45419e-08, 0.00138168, 0.218027
 726, 141.001, 0.974996, 5.14416e-08, 0.00205766, 0.218031
 756, 146.001, 0.974994, 7.58848e-08, 0.00303539, 0.218037
 786, 151.001, 0.974992, 1.10921e-07, 0.00443685, 0.218045
 816, 156.001, 0.974988, 1.60706e-07, 0.00642824, 0.218058
 846, 161.001, 0.974982, 2.30855e-07, 0.00923421, 0.218075
 876, 166.001, 0.974974, 3.289e-07, 0.013156, 0.218098
 906, 171.001, 0.974962, 4.64863e-07, 0.0185945, 0.218131
 936, 176.001, 0.974945, 6.51985e-07, 0.0260794, 0.218176
 966, 181.001, 0.974922, 9.07637e-07, 0.0363055, 0.218238
 996, 186.001, 0.97489, 1.25445e-06, 0.0501779, 0.218321
 1026, 191.001, 0.974845, 1.7217e-06, 0.068868, 0.218433
 1056, 196.001, 0.974785, 2.34705e-06, 0.0938821, 0.218582
 1086, 201.001, 0.974703, 3.17861e-06, 0.127145, 0.21878
 1116, 206.001, 0.974591, 4.27747e-06, 0.171099, 0.219042
 1146, 211.001, 0.974442, 5.72074e-06, 0.22883, 0.219385
 1176, 216.001, 0.974244, 7.60515e-06, 0.304206, 0.219831
 1206, 221.001, 0.97398, 1.00513e-05, 0.402053, 0.22041
 1236, 226.001, 0.973634, 1.32089e-05, 0.528355, 0.221155
 1266, 231.001, 0.973179, 1.72621e-05, 0.690484, 0.222109
 1296, 236.001, 0.972587, 2.24367e-05, 0.89747, 0.223325
 1326, 241.001, 0.971819, 2.90075e-05, 1.1603, 0.224865
 1356, 246.001, 0.970829, 3.73066e-05, 1.49227, 0.226805
 1386, 251.001, 0.969559, 4.77326e-05, 1.90931, 0.229236
 1416, 256.001, 0.967939, 6.07602e-05, 2.43041, 0.232267
 1446, 261.001, 0.965882, 7.69499e-05, 3.07799, 0.236023
 1476, 266.001, 0.963283, 9.69566e-05, 3.87826, 0.240651
 1506, 271.001, 0.960018, 0.000121537, 4.86149, 0.246321
 1536, 276.001, 0.955937, 0.000151555, 6.06219, 0.253222
 1566, 281.001, 0.950861, 0.000187976, 7.51903, 0.261568
 1596, 286.001, 0.944583, 0.000231861, 9.27446, 0.271586
 1626, 291.001, 0.936863, 0.000284344, 11.3737, 0.283518
 1656, 296.001, 0.927424, 0.000346586, 13.8634, 0.297603
 1686, 301.001, 0.915958, 0.000419719, 16.7887, 0.314066
 1716, 306.001, 0.902121, 0.000504743, 20.1897, 0.333088
 1746, 311.001, 0.885546, 0.000602398, 24.0959, 0.354778
 1776, 316.001, 0.865847, 0.000712983, 28.5193, 0.379125
 1806, 321.001, 0.84264, 0.000836129, 33.4452, 0.405944
 1836, 326.001, 0.815565, 0.000970529, 38.8212, 0.434808
 1866, 331.001, 0.784319, 0.00111363, 44.5453, 0.464983
 1896, 336.001, 0.748699, 0.00126135, 50.4538, 0.495351
 1926, 341.001, 0.708649, 0.00140778, 56.3112, 0.52436
 1956, 346.001, 0.664321, 0.00154514, 61.8054, 0.550007
 1986, 351.001, 0.616126, 0.00166384, 66.5535, 0.569884
 2016, 356.001, 0.564785, 0.00175302, 70.1207, 0.581318
 2046, 361.001, 0.511352, 0.00180147, 72.0587, 0.581624
 2076, 366.001, 0.457205, 0.00179912, 71.9647, 0.568488
 2106, 371.001, 0.403985, 0.00173893, 69.5571, 0.540448
 2136, 376.001, 0.353471, 0.00161892, 64.7567, 0.497396
 2166, 381.001, 0.307404, 0.00144388, 57.7551, 0.440986
 2196, 386.001, 0.267271, 0.00122606, 49.0423, 0.37476
 2226, 391.001, 0.234084, 0.000984268, 39.3707, 0.303868
 2256, 396.001, 0.20823, 0.000741102, 29.6441, 0.234306
 2286, 401.001, 0.189411, 0.00051867, 20.7468, 0.171788
 2316, 406.001, 0.176732, 0.000333992, 13.3597, 0.12056
 2346, 411.001, 0.168907, 0.000195634, 7.82535, 0.0825661
 2376, 416.001, 0.164536, 0.000102902, 4.11609, 0.0573036
 2406, 421.001, 0.162355, 4.79086e-05, 1.91634, 0.0424172
 2436, 426.001, 0.161397, 1.94266e-05, 0.777066, 0.0347472
 2466, 431.001, 0.161033, 6.73817e-06, 0.269527, 0.0313448
 2496, 436.001, 0.160915, 1.95933e-06, 0.0783733, 0.0300678
 2526, 441.001, 0.160883, 4.67058e-07, 0.0186823, 0.0296701
 2556, 446.001, 0.160876, 8.90266e-08, 0.00356106, 0.0295697
 2586, 451.001, 0.160875, 1.31997e-08, 0.000527989, 0.0295497
 2616, 456.001, 0.160875, 1.47647e-09, 5.90588e-05, 0.0295465
 2646, 461.001, 0.160875, 1.20452e-10, 4.81807e-06, 0.0295461
 2676, 466.001, 0.160875, 6.90425e-12, 2.7617e-07, 0.0295462
 2706, 471.001, 0.160875, 2.66846e-13, 1.06738e-08, 0.029546
 2736, 476.001, 0.160875, 6.64615e-15, 2.65846e-10, 0.0295461
 2766, 481.001, 0.160875, 1.01489e-16, 4.05957e-12, 0.0295462
 2796, 486.001, 0.160875, 8.99652e-19, 3.59861e-14, 0.0295461
 2826, 491.001, 0.160875, 4.36031e-21, 1.74412e-16, 0.0295462
 2856, 496.001, 0.160875, 1.08211e-23, 4.32845e-19, 0.0295462
 2886, 501.001, 0.160875, 1.28e-26, 5.11998e-22, 0.0295461
 2916, 506.001, 0.160875, 6.67329e-30, 2.66932e-25, 0.0295461
 2946, 511.001, 0.160875, 1.40802e-33, 5.63209e-29, 0.0295461
 2976, 516.001, 0.160875, 1.09562e-37, 4.38246e-33, 0.0295462
 3006, 521.001, 0.160875, 0.0000000E+000, 1.1367e-37, 0.0295461
 3036, 526.001, 0.160875, 0.0000000E+000, 0.0000000E+000, 0.0295461
 3066, 531.001, 0.160875, 0.0000000E+000, 0.0000000E+000, 0.0295461
 3096, 536.001, 0.160875, 0.0000000E+000, 0.0000000E+000, 0.0295462
 3126, 541.001, 0.160875, 0.0000000E+000, 0.0000000E+000, 0.0295461
 3156, 546.001, 0.160875, 0.0000000E+000, 0.0000000E+000, 0.0295461
 3186, 551.001, 0.160875, 0.0000000E+000, 0.0000000E+000, 0.029546
 3216, 556.001, 0.160875, 0.0000000E+000, 0.0000000E+000, 0.0295462
 3246, 561.001, 0.160875, 0.0000000E+000, 0.0000000E+000, 0.0295461
 3276, 566.001, 0.160875, 0.0000000E+000, 0.0000000E+000, 0.0295461
 3306, 571.001, 0.160875, 0.0000000E+000, 0.0000000E+000, 0.0295462
 3336, 576.001, 0.160875, 0.0000000E+000, 0.0000000E+000, 0.0295461
 3366, 581.001, 0.160875, 0.0000000E+000, 0.0000000E+000, 0.0295461
 3396, 586.001, 0.160875, 0.0000000E+000, 0.0000000E+000, 0.0295461
 3426, 591.001, 0.160875, 0.0000000E+000, 0.0000000E+000, 0.0295462
 3456, 596.001, 0.160875, 0.0000000E+000, 0.0000000E+000, 0.0295461
 3486, 601.001, 0.160875, 0.0000000E+000, 0.0000000E+000, 0.0295461
 3516, 606.001, 0.160875, 0.0000000E+000, 0.0000000E+000, 0.0295462
 3546, 611.001, 0.160875, 0.0000000E+000, 0.0000000E+000, 0.0295461
 3576, 616.001, 0.160875, 0.0000000E+000, 0.0000000E+000, 0.0295461
 3606, 621.001, 0.160875, 0.0000000E+000, 0.0000000E+000, 0.0295462
 3636, 626.001, 0.160875, 0.0000000E+000, 0.0000000E+000, 0.0295461
 3666, 631.001, 0.160875, 0.0000000E+000, 0.0000000E+000, 0.0295462
 3696, 636.001, 0.160875, 0.0000000E+000, 0.0000000E+000, 0.0295461
 3726, 641.001, 0.160875, 0.0000000E+000, 0.0000000E+000, 0.0295461
 3756, 646.001, 0.160875, 0.0000000E+000, 0.0000000E+000, 0.0295461
 3786, 651.001, 0.160875, 0.0000000E+000, 0.0000000E+000, 0.0295461
 3816, 656.001, 0.160875, 0.0000000E+000, 0.0000000E+000, 0.0295461
 3846, 661.001, 0.160875, 0.0000000E+000, 0.0000000E+000, 0.0295462
 3876, 666.001, 0.160875, 0.0000000E+000, 0.0000000E+000, 0.0295462
 3906, 671.001, 0.160875, 0.0000000E+000, 0.0000000E+000, 0.0295461
 3936, 676.001, 0.160875, 0.0000000E+000, 0.0000000E+000, 0.0295461
 3966, 681.001, 0.160875, 0.0000000E+000, 0.0000000E+000, 0.0295461
 3996, 686.001, 0.160875, 0.0000000E+000, 0.0000000E+000, 0.0295462
 4026, 691.001, 0.160875, 0.0000000E+000, 0.0000000E+000, 0.0295461
 4056, 696.001, 0.160875, 0.0000000E+000, 0.0000000E+000, 0.0295461
 4086, 701.001, 0.160875, 0.0000000E+000, 0.0000000E+000, 0.0295461
 4116, 706.001, 0.160875, 0.0000000E+000, 0.0000000E+000, 0.0295461
 4146, 711.001, 0.160875, 0.0000000E+000, 0.0000000E+000, 0.0295461
 4176, 716.001, 0.160875, 0.0000000E+000, 0.0000000E+000, 0.0295461
 4206, 721.001, 0.160875, 0.0000000E+000, 0.0000000E+000, 0.0295461
 4236, 726.001, 0.160875, 0.0000000E+000, 0.0000000E+000, 0.0295462
 4266, 731.001, 0.160875, 0.0000000E+000, 0.0000000E+000, 0.0295461
 4296, 736.001, 0.160875, 0.0000000E+000, 0.0000000E+000, 0.0295461
 4326, 741.001, 0.160875, 0.0000000E+000, 0.0000000E+000, 0.0295461
 4356, 746.001, 0.160875, 0.0000000E+000, 0.0000000E+000, 0.0295462
 4386, 751.001, 0.160875, 0.0000000E+000, 0.0000000E+000, 0.0295461
 4416, 756.001, 0.160875, 0.0000000E+000, 0.0000000E+000, 0.029546
 4446, 761.001, 0.160875, 0.0000000E+000, 0.0000000E+000, 0.0295462
 4476, 766.001, 0.160875, 0.0000000E+000, 0.0000000E+000, 0.0295461
 4506, 771.001, 0.160875, 0.0000000E+000, 0.0000000E+000, 0.0295461
 4536, 776.001, 0.160875, 0.0000000E+000, 0.0000000E+000, 0.0295462
 4566, 781.001, 0.160875, 0.0000000E+000, 0.0000000E+000, 0.0295461
 4596, 786.001, 0.160875, 0.0000000E+000, 0.0000000E+000, 0.0295462
 4626, 791.001, 0.160875, 0.0000000E+000, 0.0000000E+000, 0.0295462
 4656, 796.001, 0.160875, 0.0000000E+000, 0.0000000E+000, 0.0295462
 4680, 800.001, 0.160875, 0.0000000E+000, 0.0000000E+000, 0.0295463

File: birch_tga_1step_20_tga.csv
s,C,g/g,1/s,W/g,W/g
Time,Temp,Mass,MLR,MCC,DSC
 3, 21.0014, 0.9875, 8.76142e-14, 3.50457e-09, 0.441631
 18, 26.0014, 0.9875, 1.88651e-13, 7.54603e-09, 0.441631
 33, 31.0014, 0.9875, 3.96087e-13, 1.58435e-08, 0.441631
 48, 36.0014, 0.9875, 8.119e-13, 3.2476e-08, 0.441631
 63, 41.0014, 0.9875, 1.62664e-12, 6.50657e-08, 0.441631
 78, 46.0014, 0.9875, 3.18879e-12, 1.27552e-07, 0.441631
 93, 51.0014, 0.9875, 6.12267e-12, 2.44907e-07, 0.441631
 108, 56.0014, 0.9875, 1.15252e-11, 4.61008e-07, 0.441631
 123, 61.0014, 0.9875, 2.1288e-11, 8.5152e-07, 0.441631
 138, 66.0014, 0.9875, 3.86157e-11, 1.54463e-06, 0.441631
 153, 71.0014, 0.9875, 6.88458e-11, 2.75383e-06, 0.441631
 168, 76.0014, 0.9875, 1.20726e-10, 4.82902e-06, 0.441631
 183, 81.0014, 0.9875, 2.08369e-10, 8.33476e-06, 0.441631
 198, 86.0014, 0.9875, 3.54215e-10, 1.41686e-05, 0.441631
 213, 91.0014, 0.9875, 5.93435e-10, 2.37374e-05, 0.441631
 228, 96.0014, 0.9875, 9.80412e-10, 3.92165e-05, 0.441631
 243, 101.001, 0.9875, 1.59815e-09, 6.39258e-05, 0.441631
 258, 106.001, 0.9875, 2.57174e-09, 0.00010287, 0.441632
 273, 111.001, 0.9875, 4.08752e-09, 0.000163501, 0.441632
 288, 116.001, 0.9875, 6.41979e-09, 0.000256792, 0.441632
 303, 121.001, 0.9875, 9.96799e-09, 0.00039872, 0.441633
 318, 126.001, 0.987499, 1.53076e-08, 0.000612304, 0.441635
 333, 131.001, 0.987499, 2.32593e-08, 0.000930373, 0.441637
 348, 136.001, 0.987499, 3.49821e-08, 0.00139928, 0.441639
 363, 141.001, 0.987498, 5.20973e-08, 0.00208389, 0.441644
 378, 146.001, 0.987497, 7.68523e-08, 0.00307409, 0.44165
 393, 151.001, 0.987496, 1.12336e-07, 0.00449343, 0.441658
 408, 156.001, 0.987494, 1.62756e-07, 0.00651025, 0.441671
 423, 161.001, 0.987491, 2.33802e-07, 0.00935206, 0.441688
 438, 166.001, 0.987487, 3.331e-07, 0.013324, 0.441712
 453, 171.001, 0.987481, 4.70803e-07, 0.0188321, 0.441745
 468, 176.001, 0.987472, 6.60324e-07, 0.026413, 0.441791
 483, 181.001, 0.98746, 9.1926e-07, 0.0367704, 0.441853
 498, 186.001, 0.987444, 1.27054e-06, 0.0508215, 0.441937
 513, 191.001, 0.987422, 1.74383e-06, 0.0697534, 0.44205
 528, 196.001, 0.987391, 2.37732e-06, 0.0950927, 0.442202
 543, 201.001, 0.987349, 3.21977e-06, 0.128791, 0.442403
 558, 206.001, 0.987293, 4.33316e-06, 0.173326, 0.442668
 573, 211.001, 0.987218, 5.79575e-06, 0.23183, 0.443015
 588, 216.001, 0.987117, 7.70581e-06, 0.308232, 0.443468
 603, 221.001, 0.986984, 1.0186e-05, 0.407442, 0.444055
 618, 226.001, 0.986808, 1.33888e-05, 0.535551, 0.44481
 633, 231.001, 0.986577, 1.75021e-05, 0.700084, 0.445779
 648, 236.001, 0.986277, 2.2757e-05, 0.910281, 0.447014
 663, 241.001, 0.985887, 2.94356e-05, 1.17742, 0.448579
 678, 246.001, 0.985385, 3.78803e-05, 1.51521, 0.450554
 693, 251.001, 0.98474, 4.85047e-05, 1.94019, 0.453033
 708, 256.001, 0.983916, 6.1805e-05, 2.4722, 0.456128
 723, 261.001, 0.982869, 7.8373e-05, 3.13492, 0.459975
 738, 266.001, 0.981545, 9.89095e-05, 3.95638, 0.46473
 753, 271.001, 0.979878, 0.000124239, 4.96954, 0.47058
 768, 276.001, 0.977789, 0.00015532, 6.21282, 0.477738
 783, 281.001, 0.975184, 0.000193264, 7.73058, 0.48645
 798, 286.001, 0.97195, 0.000239338, 9.57351, 0.496997
 813, 291.001, 0.967955, 0.000294969, 11.7988, 0.50969
 828, 296.001, 0.963045, 0.000361745, 14.4698, 0.524872
 843, 301.001, 0.957038, 0.00044139, 17.6556, 0.542911
 858, 306.001, 0.949729, 0.000535735, 21.4294, 0.56419
 873, 311.001, 0.940882, 0.000646658, 25.8663, 0.58909
 888, 316.001, 0.930236, 0.000775988, 31.0395, 0.617968
 903, 321.001, 0.917501, 0.000925376, 37.015, 0.651123
 918, 326.001, 0.902366, 0.00109611, 43.8443, 0.688746
 933, 331.001, 0.884505, 0.00128886, 51.5544, 0.730863
 948, 336.001, 0.863589, 0.0015034, 60.1358, 0.77726
 963, 341.001, 0.8393, 0.00173819, 69.5275, 0.82739
 978, 346.001, 0.811355, 0.00199, 79.6001, 0.880278
 993, 351.001, 0.779538, 0.00225346, 90.1382, 0.934416
 1008, 356.001, 0.74373, 0.00252062, 100.825, 0.987676
 1023, 361.001, 0.703952, 0.00278074, 111.23, 1.03726
 1038, 366.001, 0.660408, 0.0030202, 120.808, 1.0797
 1053, 371.001, 0.613527, 0.00322287, 128.915, 1.11098
 1068, 376.001, 0.563993, 0.00337105, 134.842, 1.12679
 1083, 381.001, 0.512757, 0.00344693, 137.877, 1.12292
 1098, 386.001, 0.461025, 0.0034349, 137.396, 1.09585
 1113, 391.001, 0.410205, 0.00332427, 132.971, 1.04342
 1128, 396.001, 0.361808, 0.00311215, 124.486, 0.965588
 1143, 401.001, 0.317315, 0.00280583, 112.233, 0.86493
 1158, 406.001, 0.278016, 0.00242382, 96.9527, 0.746882
 1173, 411.001, 0.244841, 0.00199482, 79.7926, 0.619372
 1188, 416.001, 0.218235, 0.00155412, 62.165, 0.491836
 1203, 421.001, 0.198098, 0.00113796, 45.5183, 0.373698
 1218, 426.002, 0.183823, 0.000776831, 31.0732, 0.272658
 1233, 431.002, 0.174423, 0.000489981, 19.5992, 0.193296
 1248, 436.002, 0.168726, 0.000282699, 11.308, 0.136454
 1263, 441.002, 0.165581, 0.00014754, 5.90158, 0.0996538
 1278, 446.002, 0.164018, 6.87915e-05, 2.75166, 0.0783382
 1293, 451.002, 0.163328, 2.82629e-05, 1.13052, 0.0674209
 1308, 456.002, 0.16306, 1.00768e-05, 0.403073, 0.0625419
 1323, 461.002, 0.16297, 3.06562e-06, 0.122625, 0.0606672
 1338, 466.002, 0.162945, 7.81094e-07, 0.0312438, 0.0600582
 1353, 471.002, 0.162939, 1.63286e-07, 0.00653144, 0.0598939
 1368, 476.002, 0.162938, 2.73795e-08, 0.00109518, 0.0598578
 1383, 481.002, 0.162938, 3.59192e-09, 0.000143677, 0.0598516
 1398, 486.002, 0.162938, 3.58751e-10, 1.435e-05, 0.0598507
 1413, 491.002, 0.162938, 2.64742e-11, 1.05897e-06, 0.0598506
 1428, 496.002, 0.162938, 1.39696e-12, 5.58785e-08, 0.0598506
 1443, 501.002, 0.162938, 5.08536e-14, 2.03414e-09, 0.0598506
 1458, 506.002, 0.162938, 1.22814e-15, 4.91254e-11, 0.0598506
 1473, 511.002, 0.162938, 1.88554e-17, 7.54217e-13, 0.0598506
 1488, 516.002, 0.162938, 1.75679e-19, 7.02715e-15, 0.0598507
 1503, 521.002, 0.162938, 9.44388e-22, 3.77755e-17, 0.0598506
 1518, 526.002, 0.162938, 2.7726e-24, 1.10904e-19, 0.0598506
 1533, 531.002, 0.162938, 4.18842e-27, 1.67537e-22, 0.0598506
 1548, 536.002, 0.162938, 3.05201e-30, 1.2208e-25, 0.0598506
 1563, 541.002, 0.162938, 1.00026e-33, 4.00103e-29, 0.0598506
 1578, 546.002, 0.162938, 1.36696e-37, 5.46786e-33, 0.0598505
 1593, 551.002, 0.162938, 0.0000000E+000, 2.87117e-37, 0.0598506
 1608, 556.002, 0.162938, 0.0000000E+000, 0.0000000E+000, 0.0598506
 1623, 561.002, 0.162938, 0.0000000E+000, 0.0000000E+000, 0.0598505
 1638, 566.002, 0.162938, 0.0000000E+000, 0.0000000E+000, 0.0598506
 1653, 571.002, 0.162938, 0.0000000E+000, 0.0000000E+000, 0.0598506
 1668, 576.002, 0.162938, 0.0000000E+000, 0.0000000E+000, 0.0598506
 1683, 581.002, 0.162938, 0.0000000E+000, 0.0000000E+000, 0.0598506
 1698, 586.002, 0.162938, 0.0000000E+000, 0.0000000E+000, 0.0598505
 1713, 591.002, 0.162938, 0.0000000E+000, 0.0000000E+000, 0.0598506
 1728, 596.002, 0.162938, 0.0000000E+000, 0.0000000E+000, 0.0598506
 1743, 601.002, 0.162938, 0.0000000E+000, 0.0000000E+000, 0.0598505
 1758, 606.002, 0.162938, 0.0000000E+000, 0.0000000E+000, 0.0598506
 1773, 611.002, 0.162938, 0.0000000E+000, 0.0000000E+000, 0.0598505
 1788, 616.002, 0.162938, 0.0000000E+000, 0.0000000E+000, 0.0598506
 1803, 621.002, 0.162938, 0.0000000E+000, 0.0000000E+000, 0.0598506
 1818, 626.002, 0.162938, 0.0000000E+000, 0.0000000E+000, 0.0598505
 1833, 631.002, 0.162938, 0.0000000E+000, 0.0000000E+000, 0.0598506
 1848, 636.002, 0.162938, 0.0000000E+000, 0.0000000E+000, 0.0598506
 1863, 641.002, 0.162938, 0.0000000E+000, 0.0000000E+000, 0.0598506
 1878, 646.002, 0.162938, 0.0000000E+000, 0.0000000E+000, 0.0598506
 1893, 651.002, 0.162938, 0.0000000E+000, 0.0000000E+000, 0.0598505
 1908, 656.002, 0.162938, 0.0000000E+000, 0.0000000E+000, 0.0598505
 1923, 661.002, 0.162938, 0.0000000E+000, 0.0000000E+000, 0.0598507
 1938, 666.002, 0.162938, 0.0000000E+000, 0.0000000E+000, 0.0598506
 1953, 671.002, 0.162938, 0.0000000E+000, 0.0000000E+000, 0.0598505
 1968, 676.002, 0.162938, 0.0000000E+000, 0.0000000E+000, 0.0598506
 1983, 681.002, 0.162938, 0.0000000E+000, 0.0000000E+000, 0.0598506
 1998, 686.002, 0.162938, 0.0000000E+000, 0.0000000E+000, 0.0598506
 2013, 691.002, 0.162938, 0.0000000E+000, 0.0000000E+000, 0.0598506
 2028, 696.002, 0.162938, 0.0000000E+000, 0.0000000E+000, 0.0598505
 2043, 701.002, 0.162938, 0.0000000E+000, 0.0000000E+000, 0.0598506
 2058, 706.002, 0.162938, 0.0000000E+000, 0.0000000E+000, 0.0598506
 2073, 711.002, 0.162938, 0.0000000E+000, 0.0000000E+000, 0.0598505
 2088, 716.002, 0.162938, 0.0000000E+000, 0.0000000E+000, 0.0598506
 2103, 721.002, 0.162938, 0.0000000E+000, 0.0000000E+000, 0.0598506
 2118, 726.002, 0.162938, 0.0000000E+000, 0.0000000E+000, 0.0598506
 2133, 731.002, 0.162938, 0.0000000E+000, 0.0000000E+000, 0.0598507
 2148, 736.002, 0.162938, 0.0000000E+000, 0.0000000E+000, 0.0598505
 2163, 741.002, 0.162938, 0.0000000E+000, 0.0000000E+000, 0.0598506
 2178, 746.002, 0.162938, 0.0000000E+000, 0.0000000E+000, 0.0598505
 2193, 751.002, 0.162938, 0.0000000E+000, 0.0000000E+000, 0.0598505
 2208, 756.002, 0.162938, 0.0000000E+000, 0.0000000E+000, 0.0598505
 2223, 761.002, 0.162938, 0.0000000E+000, 0.0000000E+000, 0.0598505
 2238, 766.002, 0.162938, 0.0000000E+000, 0.0000000E+000, 0.0598506
 2253, 771.002, 0.162938, 0.0000000E+000, 0.0000000E+000, 0.0598507
 2268, 776.002, 0.162938, 0.0000000E+000, 0.0000000E+000, 0.0598505
 2283, 781.002, 0.162938, 0.0000000E+000, 0.0000000E+000, 0.0598505
 2298, 786.002, 0.162938, 0.0000000E+000, 0.0000000E+000, 0.0598505
 2313, 791.002, 0.162938, 0.0000000E+000, 0.0000000E+000, 0.0598505
 2328, 796.002, 0.162938, 0.0000000E+000, 0.0000000E+000, 0.0598504
 2340, 800.002, 0.162938, 0.0000000E+000, 0.0000000E+000, 0.0598506