Folder: PyroPython/examples/Birch_TGA_Example/tmp (part 2)

File: birch_tga_1step_2_tga.csv
s,C,g/g,1/s,W/g,W/g
Time,Temp,Mass,MLR,MCC,DSC
 3, 21.0014, 1, 2.23902e-08, 2.83061e-16, 0.448494
 18, 26.0014, 0.999999, 4.43299e-08, 1.03945e-15, 0.448543
 33, 31.0014, 0.999999, 8.57869e-08, 3.65727e-15, 0.448635
 48, 36.0014, 0.999997, 1.62393e-07, 1.23548e-14, 0.448806
 63, 41.0014, 0.999993, 3.00841e-07, 4.015e-14, 0.449115
 78, 46.0014, 0.999987, 5.45404e-07, 1.25747e-13, 0.449659
 93, 51.0014, 0.999976, 9.66874e-07, 3.80201e-13, 0.450598
 108, 56.0014, 0.999957, 1.6727e-06, 1.11155e-12, 0.452168
 123, 61.0014, 0.999924, 2.81287e-06, 3.14706e-12, 0.454702
 138, 66.0014, 0.999869, 4.56588e-06, 8.64075e-12, 0.458593
 153, 71.0014, 0.999783, 7.07018e-06, 2.30384e-11, 0.46414
 168, 76.0014, 0.999654, 1.02462e-05, 5.97248e-11, 0.471146
 183, 81.0014, 0.999475, 1.34818e-05, 1.50722e-10, 0.478218
 198, 86.0014, 0.999256, 1.53638e-05, 3.70684e-10, 0.482169
 213, 91.0014, 0.99903, 1.41076e-05, 8.89403e-10, 0.479008
 228, 96.0014, 0.998851, 9.35987e-06, 2.084e-09, 0.468012
 243, 101.001, 0.998753, 3.81425e-06, 4.77323e-09, 0.455328
 258, 106.001, 0.998723, 7.51613e-07, 1.06963e-08, 0.448358
 273, 111.001, 0.998719, 5.05517e-08, 2.34712e-08, 0.446766
 288, 116.001, 0.998719, 7.03525e-10, 5.04736e-08, 0.446653
 303, 121.001, 0.998719, 3.64493e-12, 1.06453e-07, 0.446652
 318, 126.001, 0.998719, 5.50901e-12, 2.20359e-07, 0.446652
 333, 131.001, 0.998719, 1.12002e-11, 4.48007e-07, 0.446652
 348, 136.001, 0.998719, 2.23794e-11, 8.95175e-07, 0.446652
 363, 141.001, 0.998719, 4.39757e-11, 1.75903e-06, 0.446652
 378, 146.001, 0.998719, 8.50311e-11, 3.40124e-06, 0.446652
 393, 151.001, 0.998719, 1.61879e-10, 6.47518e-06, 0.446652
 408, 156.001, 0.998719, 3.03592e-10, 1.21437e-05, 0.446652
 423, 161.001, 0.998719, 5.61174e-10, 2.2447e-05, 0.446652
 438, 166.001, 0.998719, 1.02289e-09, 4.09157e-05, 0.446652
 453, 171.001, 0.998719, 1.83947e-09, 7.35786e-05, 0.446652
 468, 176.001, 0.998719, 3.26497e-09, 0.000130599, 0.446652
 483, 181.001, 0.998719, 5.72242e-09, 0.000228897, 0.446653
 498, 186.001, 0.998718, 9.9077e-09, 0.000396308, 0.446654
 513, 191.001, 0.998718, 1.69523e-08, 0.000678093, 0.446655
 528, 196.001, 0.998718, 2.86757e-08, 0.00114703, 0.446658
 543, 201.001, 0.998717, 4.79716e-08, 0.00191886, 0.446662
 558, 206.001, 0.998716, 7.93944e-08, 0.00317578, 0.446669
 573, 211.001, 0.998715, 1.3004e-07, 0.00520159, 0.446681
 588, 216.001, 0.998712, 2.10854e-07, 0.00843414, 0.446699
 603, 221.001, 0.998708, 3.38561e-07, 0.0135425, 0.446727
 618, 226.001, 0.998702, 5.38483e-07, 0.0215393, 0.446772
 633, 231.001, 0.998692, 8.48609e-07, 0.0339444, 0.446841
 648, 236.001, 0.998676, 1.32544e-06, 0.0530177, 0.446948
 663, 241.001, 0.998651, 2.05231e-06, 0.0820924, 0.447109
 678, 246.001, 0.998612, 3.15109e-06, 0.126044, 0.447354
 693, 251.001, 0.998553, 4.79862e-06, 0.191945, 0.447719
 708, 256.001, 0.998464, 7.24944e-06, 0.289978, 0.448262
 723, 261.001, 0.99833, 1.08672e-05, 0.434687, 0.449063
 738, 266.001, 0.99813, 1.61672e-05, 0.646687, 0.450234
 753, 271.001, 0.997833, 2.38745e-05, 0.95498, 0.451935
 768, 276.001, 0.997396, 3.50012e-05, 1.40005, 0.454387
 783, 281.001, 0.996759, 5.09487e-05, 2.03795, 0.457895
 798, 286.001, 0.995834, 7.36419e-05, 2.94568, 0.462879
 813, 291.001, 0.994502, 0.000105701, 4.22804, 0.469909
 828, 296.001, 0.992598, 0.000150657, 6.02629, 0.479751
 843, 301.001, 0.989895, 0.000213216, 8.52863, 0.493421
 858, 306.001, 0.986082, 0.000299561, 11.9824, 0.512252
 873, 311.001, 0.980748, 0.000417685, 16.7074, 0.537958
 888, 316.001, 0.973342, 0.000577687, 23.1075, 0.572697
 903, 321.001, 0.963145, 0.000791954, 31.6781, 0.619088
 918, 326.001, 0.949237, 0.00107503, 43.0013, 0.680179
 933, 331.001, 0.930467, 0.00144289, 57.7157, 0.759246
 948, 336.001, 0.905443, 0.00191112, 76.445, 0.859368
 963, 341.001, 0.872566, 0.00249139, 99.6555, 0.982587
 978, 346.001, 0.830123, 0.00318542, 127.417, 1.12853
 993, 351.001, 0.776508, 0.00397602, 159.041, 1.29237
 1008, 356.001, 0.710583, 0.00481549, 192.62, 1.46223
 1023, 361.001, 0.632231, 0.00561423, 224.569, 1.61669
 1038, 366.001, 0.543027, 0.00623619, 249.448, 1.7241
 1053, 371.001, 0.44687, 0.0065125, 260.5, 1.74605
 1068, 376.001, 0.350182, 0.00628567, 251.427, 1.648
 1083, 381.001, 0.261199, 0.0054858, 219.432, 1.41711
 1098, 386.001, 0.188029, 0.00421047, 168.419, 1.08028
 1113, 391.001, 0.135873, 0.0027435, 109.74, 0.707423
 1128, 396.001, 0.104843, 0.00145152, 58.0606, 0.385814
 1143, 401.002, 0.0901433, 0.000589592, 23.5837, 0.173987
 1158, 406.002, 0.0849111, 0.000171397, 6.85588, 0.0720814
 1173, 411.002, 0.0836083, 3.26662e-05, 1.30665, 0.0384762
 1188, 416.002, 0.0834003, 3.65966e-06, 0.146386, 0.0314803
 1203, 421.002, 0.0833812, 2.10489e-07, 0.00841956, 0.0306512
 1218, 426.002, 0.0833803, 5.25714e-09, 0.000210285, 0.0306017
 1233, 431.002, 0.0833803, 4.63819e-11, 1.85528e-06, 0.0306004
 1248, 436.002, 0.0833803, 1.12154e-13, 4.48616e-09, 0.0306005
 1263, 441.002, 0.0833803, 5.44549e-17, 2.1782e-12, 0.0306006
 1278, 446.002, 0.0833803, 3.62918e-21, 1.45167e-16, 0.0306005
 1293, 451.002, 0.0833803, 2.08749e-26, 8.34996e-22, 0.0306008
 1308, 456.002, 0.0833803, 5.8919e-33, 2.35676e-28, 0.0306005
 1323, 461.002, 0.0833803, 0.0000000E+000, 1.64416e-36, 0.0306008
 1338, 466.002, 0.0833803, 0.0000000E+000, 0.0000000E+000, 0.0306008
 1353, 471.002, 0.0833803, 0.0000000E+000, 0.0000000E+000, 0.0306006
 1368, 476.002, 0.0833803, 0.0000000E+000, 0.0000000E+000, 0.0306006
 1383, 481.002, 0.0833803, 0.0000000E+000, 0.0000000E+000, 0.0306005
 1398, 486.002, 0.0833803, 0.0000000E+000, 0.0000000E+000, 0.0306007
 1413, 491.002, 0.0833803, 0.0000000E+000, 0.0000000E+000, 0.0306008
 1428, 496.002, 0.0833803, 0.0000000E+000, 0.0000000E+000, 0.0306007
 1443, 501.002, 0.0833803, 0.0000000E+000, 0.0000000E+000, 0.0306006
 1458, 506.002, 0.0833803, 0.0000000E+000, 0.0000000E+000, 0.0306009
 1473, 511.002, 0.0833803, 0.0000000E+000, 0.0000000E+000, 0.0306008
 1488, 516.002, 0.0833803, 0.0000000E+000, 0.0000000E+000, 0.0306006
 1503, 521.002, 0.0833803, 0.0000000E+000, 0.0000000E+000, 0.0306006
 1518, 526.002, 0.0833803, 0.0000000E+000, 0.0000000E+000, 0.0306006
 1533, 531.002, 0.0833803, 0.0000000E+000, 0.0000000E+000, 0.0306006
 1548, 536.002, 0.0833803, 0.0000000E+000, 0.0000000E+000, 0.0306006
 1563, 541.002, 0.0833803, 0.0000000E+000, 0.0000000E+000, 0.0306006
 1578, 546.002, 0.0833803, 0.0000000E+000, 0.0000000E+000, 0.0306008
 1593, 551.002, 0.0833803, 0.0000000E+000, 0.0000000E+000, 0.0306005
 1608, 556.002, 0.0833803, 0.0000000E+000, 0.0000000E+000, 0.0306007
 1623, 561.002, 0.0833803, 0.0000000E+000, 0.0000000E+000, 0.0306006
 1638, 566.002, 0.0833803, 0.0000000E+000, 0.0000000E+000, 0.0306006
 1653, 571.002, 0.0833803, 0.0000000E+000, 0.0000000E+000, 0.0306004
 1668, 576.002, 0.0833803, 0.0000000E+000, 0.0000000E+000, 0.0306006
 1683, 581.002, 0.0833803, 0.0000000E+000, 0.0000000E+000, 0.0306005
 1698, 586.002, 0.0833803, 0.0000000E+000, 0.0000000E+000, 0.0306005
 1713, 591.002, 0.0833803, 0.0000000E+000, 0.0000000E+000, 0.0306005
 1728, 596.002, 0.0833803, 0.0000000E+000, 0.0000000E+000, 0.0306005
 1743, 601.002, 0.0833803, 0.0000000E+000, 0.0000000E+000, 0.0306006
 1758, 606.002, 0.0833803, 0.0000000E+000, 0.0000000E+000, 0.0306006
 1773, 611.002, 0.0833803, 0.0000000E+000, 0.0000000E+000, 0.0306007
 1788, 616.002, 0.0833803, 0.0000000E+000, 0.0000000E+000, 0.0306007
 1803, 621.002, 0.0833803, 0.0000000E+000, 0.0000000E+000, 0.0306006
 1818, 626.002, 0.0833803, 0.0000000E+000, 0.0000000E+000, 0.0306004
 1833, 631.002, 0.0833803, 0.0000000E+000, 0.0000000E+000, 0.0306008
 1848, 636.002, 0.0833803, 0.0000000E+000, 0.0000000E+000, 0.0306008
 1863, 641.002, 0.0833803, 0.0000000E+000, 0.0000000E+000, 0.0306009
 1878, 646.002, 0.0833803, 0.0000000E+000, 0.0000000E+000, 0.0306006
 1893, 651.002, 0.0833803, 0.0000000E+000, 0.0000000E+000, 0.0306007
 1908, 656.002, 0.0833803, 0.0000000E+000, 0.0000000E+000, 0.0306007
 1923, 661.002, 0.0833803, 0.0000000E+000, 0.0000000E+000, 0.0306006
 1938, 666.002, 0.0833803, 0.0000000E+000, 0.0000000E+000, 0.0306005
 1953, 671.002, 0.0833803, 0.0000000E+000, 0.0000000E+000, 0.0306007
 1968, 676.002, 0.0833803, 0.0000000E+000, 0.0000000E+000, 0.0306005
 1983, 681.002, 0.0833803, 0.0000000E+000, 0.0000000E+000, 0.0306007
 1998, 686.002, 0.0833803, 0.0000000E+000, 0.0000000E+000, 0.0306009
 2013, 691.002, 0.0833803, 0.0000000E+000, 0.0000000E+000, 0.0306006
 2028, 696.002, 0.0833803, 0.0000000E+000, 0.0000000E+000, 0.0306006
 2043, 701.002, 0.0833803, 0.0000000E+000, 0.0000000E+000, 0.0306006
 2058, 706.002, 0.0833803, 0.0000000E+000, 0.0000000E+000, 0.0306006
 2073, 711.002, 0.0833803, 0.0000000E+000, 0.0000000E+000, 0.0306006
 2088, 716.002, 0.0833803, 0.0000000E+000, 0.0000000E+000, 0.0306005
 2103, 721.002, 0.0833803, 0.0000000E+000, 0.0000000E+000, 0.0306006
 2118, 726.002, 0.0833803, 0.0000000E+000, 0.0000000E+000, 0.0306004
 2133, 731.002, 0.0833803, 0.0000000E+000, 0.0000000E+000, 0.0306007
 2148, 736.002, 0.0833803, 0.0000000E+000, 0.0000000E+000, 0.0306006
 2163, 741.002, 0.0833803, 0.0000000E+000, 0.0000000E+000, 0.0306005
 2178, 746.002, 0.0833803, 0.0000000E+000, 0.0000000E+000, 0.0306008
 2193, 751.002, 0.0833803, 0.0000000E+000, 0.0000000E+000, 0.0306005
 2208, 756.002, 0.0833803, 0.0000000E+000, 0.0000000E+000, 0.0306005
 2223, 761.002, 0.0833803, 0.0000000E+000, 0.0000000E+000, 0.0306006
 2238, 766.002, 0.0833803, 0.0000000E+000, 0.0000000E+000, 0.0306008
 2253, 771.002, 0.0833803, 0.0000000E+000, 0.0000000E+000, 0.030601
 2268, 776.002, 0.0833803, 0.0000000E+000, 0.0000000E+000, 0.0306006
 2283, 781.002, 0.0833803, 0.0000000E+000, 0.0000000E+000, 0.0306007
 2298, 786.002, 0.0833803, 0.0000000E+000, 0.0000000E+000, 0.0306009
 2313, 791.002, 0.0833803, 0.0000000E+000, 0.0000000E+000, 0.0306005
 2328, 796.002, 0.0833803, 0.0000000E+000, 0.0000000E+000, 0.0306009
 2340, 800.002, 0.0833803, 0.0000000E+000, 0.0000000E+000, 0.0306006