Folder: PyroPython/examples/Generic/tga-mcc

Note: Readme.md
# PyroPython -- Parameter estimation for FDS pyrolysis models in python

This is simple python script that attempts to indentify pyrolysis parameters for FDS. The program si divided into three parts:

model.py - this file containse the claa Model. Contains functions for reading datafiles, fitness evaluation and running FDS and postprocessing FDS outputs
config.py - provides configuration management
pyropython.py - main executable 

currently all these files need to be in the same directory. TODO: more sensible packaging

As it is now, the program uses scikit optimize [https://github.com/scikit-optimize/scikit-optimize] to optimize the model. Scikit-optimize uses sequential model-based optimization (also known as Bayesian Optimization).  The optimization uses a response surface fitted to the model evaluations to guide the optimization. TODO: add GAs such as shuffled-complex-evolution. (possibly using SPOTPY [http://fb09-pasig.umwelt.uni-giessen.de/spotpy/])

## Prerequisites

-FDS 
-Python 3
-Python packages: Numpy, Scipy, Matplotlib, pandas, yaml, scikit-optimize

Esiest way to install the prerequiaites

1. Install Anaconda (or miniconda) [https://www.anaconda.com/download/#linux]
2. Type: 
```
 conda install pandas scikit-learn
 conda install -c conda-forge scikit-optimize
```
Matplotlib and numpy should already be included in the download of anaconda, if you downloaded miniconda or otherwise are missing packages:
```
 conda install numpy scipy matploltib 
```

## Usage

Test installation by typing:

```
 python pyropython.py -h

```

This should output the following help text

```
usage: pyropython.py [-h] [-v VERBOSITY] [-n NUM_JOBS] [-m MAX_ITER]
                     [-i NUM_INITIAL] [-p NUM_POINTS]
                     fname

positional arguments:
  fname                 Input file name

optional arguments:
  -h, --help            show this help message and exit
  -v VERBOSITY, --verbosity VERBOSITY
                        increase output verbosity
  -n NUM_JOBS, --num_jobs NUM_JOBS
                        number of concurrent jobs
  -m MAX_ITER, --max_iter MAX_ITER
                        maximum number of iterations
  -i NUM_INITIAL, --num_initial NUM_INITIAL
                        number of points in initial design
  -p NUM_POINTS, --num_points NUM_POINTS
                        number of points per iteration
```

## input files

The input files are standard FDS input files with following additions

1. Theres should be a configuration block somewhere in the .fds file. The configuration is given in YAML format [https://en.wikipedia.org/wiki/YAML]. The configuration is placed between #config_start and #config_end blocks as follows 
```
#config_start

... configuration goes here

#config_end
```
2. The Variables that are to be optimized shall be replaced with $var_name (e.g. dollar sign followed by the variable name). For example:
```
#config_start
...
variables:
          VAR1: [ 0.1, 0.5]
...
#config_end

...

&MATL ID="ACME STUFF"
      

File: generic_1_tga_30_tga.csv
Time,Temp,Mass,MLR,MCC,DSC
 2, 21.0021, 0.999999, 4.7987e-07, 2.07928e-13, 0.743216
 12, 26.0021, 0.999992, 9.5029e-07, 5.79593e-13, 0.744266
 22, 31.0021, 0.999979, 1.83976e-06, 1.56206e-12, 0.746251
 32, 36.0021, 0.999953, 3.48541e-06, 4.07709e-12, 0.749921
 42, 41.0021, 0.999905, 6.46653e-06, 1.03217e-11, 0.756567
 52, 46.0021, 0.999816, 1.17555e-05, 2.53821e-11, 0.768351
 62, 51.0021, 0.999656, 2.09428e-05, 6.07131e-11, 0.788809
 72, 56.0021, 0.999376, 3.65493e-05, 1.41444e-10, 0.823541
 82, 61.002, 0.998891, 6.24059e-05, 3.21359e-10, 0.881042
 92, 66.002, 0.998075, 0.00010398, 7.12919e-10, 0.973417
 102, 71.0019, 0.996735, 0.000168286, 1.54624e-09, 1.11614
 112, 76.0018, 0.994608, 0.000262559, 3.28284e-09, 1.32502
 122, 81.0017, 0.991371, 0.00039024, 6.83144e-09, 1.60716
 132, 86.0015, 0.986716, 0.000542873, 1.39505e-08, 1.94278
 142, 91.0013, 0.980529, 0.000689482, 2.79837e-08, 2.26151
 152, 96.0013, 0.973133, 0.000773781, 5.51651e-08, 2.43666
 162, 101.001, 0.965459, 0.000738031, 1.06852e-07, 2.33955
 172, 106.001, 0.958808, 0.000574697, 2.03225e-07, 1.95592
 182, 111.002, 0.954163, 0.000353549, 3.79385e-07, 1.44578
 192, 116.002, 0.95161, 0.000169127, 6.95532e-07, 1.0232
 202, 121.002, 0.950512, 6.33461e-05, 1.25382e-06, 0.781617
 212, 126.002, 0.950137, 1.9108e-05, 2.22547e-06, 0.680775
 222, 131.002, 0.950032, 4.83979e-06, 3.89332e-06, 0.648286
 232, 136.002, 0.950007, 1.07748e-06, 6.71811e-06, 0.639726
 242, 141.002, 0.950001, 2.20105e-07, 1.14405e-05, 0.637775
 252, 146.002, 0.95, 4.30881e-08, 1.92363e-05, 0.637372
 262, 151.002, 0.95, 8.93272e-09, 3.19507e-05, 0.637294
 272, 156.002, 0.95, 2.99951e-09, 5.24448e-05, 0.63728
 282, 161.002, 0.95, 2.7143e-09, 8.51075e-05, 0.637277
 292, 166.002, 0.95, 3.95683e-09, 0.000136598, 0.637278
 302, 171.002, 0.95, 6.2082e-09, 0.000216918, 0.637279
 312, 176.002, 0.95, 9.74317e-09, 0.000340937, 0.637282
 322, 181.002, 0.95, 1.51591e-08, 0.000530553, 0.637285
 332, 186.002, 0.949999, 2.33633e-08, 0.000817711, 0.63729
 342, 191.002, 0.949999, 3.56743e-08, 0.0012486, 0.637298
 352, 196.002, 0.949999, 5.39833e-08, 0.00188941, 0.63731
 362, 201.002, 0.949998, 8.09782e-08, 0.00283424, 0.637328
 372, 206.002, 0.949997, 1.20448e-07, 0.00421568, 0.637354
 382, 211.002, 0.949996, 1.77692e-07, 0.00621922, 0.637391
 392, 216.002, 0.949993, 2.60064e-07, 0.00910224, 0.637444
 402, 221.002, 0.94999, 3.77694e-07, 0.0132193, 0.637521
 412, 226.002, 0.949986, 5.44436e-07, 0.0190553, 0.637629
 422, 231.002, 0.949979, 7.79102e-07, 0.0272686, 0.637781
 432, 236.002, 0.94997, 1.10706e-06, 0.0387471, 0.637994
 442, 241.002, 0.949957, 1.56229e-06, 0.0546802, 0.638289
 452, 246.002, 0.949938, 2.19001e-06, 0.0766503, 0.638696
 462, 251.002, 0.949912, 3.04997e-06, 0.106749, 0.639252
 472, 256.002, 0.949876, 4.22064e-06, 0.147722, 0.64001
 482, 261.002, 0.949826, 5.80436e-06, 0.203153, 0.641033
 492, 266.002, 0.949758, 7.93369e-06, 0.277679, 0.642409
 502, 271.002, 0.949665, 1.07791e-05, 0.377269, 0.644246
 512, 276.002, 0.949539, 1.45582e-05, 0.509539, 0.646685
 522, 281.002, 0.94937, 1.95465e-05, 0.684129, 0.649901
 532, 286.002, 0.949143, 2.60894e-05, 0.913132, 0.654117
 542, 291.002, 0.948841, 3.46159e-05, 1.21156, 0.659606
 552, 296.002, 0.948442, 4.56516e-05, 1.59781, 0.666705
 562, 301.002, 0.947918, 5.98321e-05, 2.09413, 0.675819
 572, 306.002, 0.947233, 7.79111e-05, 2.72691, 0.687427
 582, 311.002, 0.946343, 0.000100763, 3.52675, 0.702084
 592, 316.002, 0.945198, 0.000129372, 4.52809, 0.720411
 602, 321.002, 0.943733, 0.000164801, 5.76818, 0.743074
 612, 326.002, 0.941875, 0.000208135, 7.28499, 0.770746
 622, 331.002, 0.93954, 0.000260382, 9.11386, 0.804041
 632, 336.002, 0.936635, 0.000322335, 11.2826, 0.843419
 642, 341.002, 0.933059, 0.000394387, 13.8052, 0.889068
 652, 346.002, 0.928713, 0.000476312, 16.6738, 0.940754
 662, 351.002, 0.923502, 0.000567053, 19.8518, 0.997685
 672, 356.002, 0.917348, 0.000664552, 23.2679, 1.0584
 682, 361.002, 0.910198, 0.000765718, 26.8145, 1.12074
 692, 366.002, 0.902034, 0.00086657, 30.3535, 1.18195
 702, 371.002, 0.892882, 0.000962618, 33.7296, 1.23895
 712, 376.002, 0.882812, 0.00104944, 36.7902, 1.28868
 722, 381.002, 0.871935, 0.00112336, 39.4095, 1.32854
 732, 386.002, 0.860395, 0.00118205, 41.5104, 1.35682
 742, 391.002, 0.848347, 0.00122499, 43.079, 1.37295
 752, 396.002, 0.835943, 0.00125354, 44.169, 1.37757
 762, 401.002, 0.823313, 0.0012708, 44.8951, 1.37238
 772, 406.002, 0.81055, 0.00128117, 45.4185, 1.35987
 782, 411.002, 0.797695, 0.00128983, 45.9285, 1.34301
 792, 416.002, 0.784741, 0.00130219, 46.6227, 1.32485
 802, 421.002, 0.771622, 0.00132343, 47.6896, 1.30827
 812, 426.002, 0.758227, 0.00135802, 49.2923, 1.29576
 822, 431.002, 0.744405, 0.00140937, 51.5542, 1.28917
 832, 436.002, 0.729976, 0.00147947, 54.5451, 1.28967
 842, 441.002, 0.714751, 0.00156849, 58.2666, 1.29755
 852, 446.002, 0.698549, 0.0016745, 62.6398, 1.31213
 862, 451.002, 0.681218, 0.00179322, 67.4948, 1.33176
 872, 456.002, 0.662663, 0.00191789, 72.567, 1.35374
 882, 461.002, 0.642869, 0.00203952, 77.5055, 1.37449
 892, 466.002, 0.621917, 0.00214749, 81.8956, 1.38984
 902, 471.002, 0.600001, 0.00223056, 85.2995, 1.3954
 912, 476.002, 0.577423, 0.00227828, 87.3109, 1.38719
 922, 481.002, 0.55458, 0.0022826, 87.6165, 1.36223
 932, 486.002, 0.531931, 0.00223927, 86.0511, 1.31912
 942, 491.002, 0.509953, 0.0021487, 82.632, 1.25834
 952, 496.002, 0.489099, 0.00201606, 77.5615, 1.18225
 962, 501.002, 0.469744, 0.00185045, 71.1957, 1.09474
 972, 506.002, 0.452163, 0.00166342, 63.986, 1.00059
 982, 511.002, 0.436508, 0.00146716, 56.4086, 0.904743
 992, 516.002, 0.422815, 0.00127283, 48.8991, 0.811663
 1002, 521.002, 0.411017, 0.00108934, 41.8059, 0.724824
 1012, 526.002, 0.400973, 0.000922791, 35.3674, 0.646522
 1022, 531.002, 0.392495, 0.000776481, 29.7132, 0.577898
 1032, 536.002, 0.385374, 0.000651339, 24.8797, 0.519129
 1042, 541.002, 0.379401, 0.000546539, 20.8354, 0.469691
 1052, 546.002, 0.374383, 0.000460161, 17.5055, 0.428635
 1062, 551.002, 0.370146, 0.00038974, 14.7945, 0.394814
 1072, 556.002, 0.366544, 0.000332683, 12.6016, 0.367053
 1082, 561.002, 0.363456, 0.000286535, 10.8312, 0.344252
 1092, 566.002, 0.360785, 0.000249121, 9.3989, 0.325445
 1102, 571.002, 0.358451, 0.000218606, 8.23331, 0.30982
 1112, 576.002, 0.356395, 0.000193493, 7.2763, 0.296713
 1122, 581.002, 0.354568, 0.000172595, 6.48175, 0.285599
 1132, 586.002, 0.352932, 0.00015499, 5.81388, 0.276067
 1142, 591.002, 0.351459, 0.000139973, 5.24537, 0.2678
 1152, 596.002, 0.350126, 0.000127011, 4.75558, 0.260558
 1162, 601.002, 0.348914, 0.000115704, 4.32903, 0.254158
 1172, 606.002, 0.347808, 0.00010575, 3.95408, 0.248459
 1182, 611.002, 0.346795, 9.69207e-05, 3.62192, 0.243354
 1192, 616.002, 0.345866, 8.90404e-05, 3.32578, 0.238756
 1202, 621.002, 0.345012, 8.19709e-05, 3.06038, 0.234599
 1212, 626.002, 0.344224, 7.56021e-05, 2.82148, 0.230828
 1222, 631.002, 0.343498, 6.98442e-05, 2.60567, 0.227396
 1232, 636.002, 0.342826, 6.46226e-05, 2.4101, 0.224266
 1242, 641.002, 0.342204, 5.98748e-05, 2.23238, 0.221404
 1252, 646.002, 0.341627, 5.55477e-05, 2.0705, 0.218783
 1262, 651.002, 0.341092, 5.15956e-05, 1.92273, 0.216377
 1272, 656.002, 0.340594, 4.79792e-05, 1.78757, 0.214166
 1282, 661.002, 0.340131, 4.4664e-05, 1.66372, 0.212131
 1292, 666.002, 0.3397, 4.16201e-05, 1.55006, 0.210254
 1302, 671.002, 0.339298, 3.8821e-05, 1.44557, 0.208523
 1312, 676.002, 0.338923, 3.62435e-05, 1.34938, 0.206922
 1322, 681.002, 0.338572, 3.3867e-05, 1.26072, 0.205441
 1332, 686.002, 0.338245, 3.1673e-05, 1.1789, 0.20407
 1342, 691.002, 0.337938, 2.96451e-05, 1.10329, 0.202798
 1352, 696.002, 0.337651, 2.77688e-05, 1.03334, 0.201618
 1362, 701.002, 0.337382, 2.60309e-05, 0.968573, 0.200522
 1372, 706.002, 0.33713, 2.44196e-05, 0.908532, 0.199503
 1382, 711.002, 0.336894, 2.29242e-05, 0.852822, 0.198554
 1392, 716.002, 0.336671, 2.15351e-05, 0.801082, 0.197671
 1402, 721.002, 0.336463, 2.02437e-05, 0.752986, 0.196847
 1412, 726.002, 0.336266, 1.90421e-05, 0.70824, 0.196079
 1422, 731.002, 0.336082, 1.7923e-05, 0.666576, 0.195362
 1432, 736.002, 0.335908, 1.68801e-05, 0.627751, 0.194692
 1442, 741.002, 0.335744, 1.59074e-05, 0.591544, 0.194065
 1452, 746.002, 0.335589, 1.49995e-05, 0.557754, 0.193479
 1462, 751.002, 0.335444, 1.41515e-05, 0.526196, 0.192931
 1472, 756.002, 0.335306, 1.33589e-05, 0.496703, 0.192417
 1482, 761.002, 0.335176, 1.26176e-05, 0.46912, 0.191935
 1492, 766.002, 0.335054, 1.19238e-05, 0.443307, 0.191483
 1502, 771.002, 0.334938, 1.12741e-05, 0.419136, 0.191059
 1512, 776.002, 0.334828, 1.06652e-05, 0.396486, 0.190661
 1522, 781.002, 0.334724, 1.00943e-05, 0.375251, 0.190287
 1532, 786.002, 0.334626, 9.5587e-06, 0.355329, 0.189935
 1542, 791.002, 0.334533, 9.05589e-06, 0.336628, 0.189604
 1552, 796.002, 0.334445, 8.58362e-06, 0.319064, 0.189293
 1560, 800.002, 0.334377, 8.22636e-06, 0.305778, 0.189057